TITLE,
DATA TYPE,INFRARED SPECTRUM
ORIGIN,JASCO
OWNER,
DATE,24/04/24
TIME,10:41:39
SPECTROMETER/DATA SYSTEM,
LOCALE,1033
RESOLUTION,
DELTAX,0.964233
XUNITS,1/CM
YUNITS,TRANSMITTANCE
FIRSTX,  649.8934
LASTX, 4000.6047
NPOINTS,    3476
FIRSTY,    99.99446
MAXY,   102.05429
MINY,    51.83670
XYDATA
649.8934,99.9945
650.8576,99.8765
651.8218,99.7885
652.7861,99.7326
653.7503,99.6933
654.7145,99.6564
655.6788,99.607
656.6430,99.5297
657.6072,99.4173
658.5715,99.2829
659.5357,99.1641
660.4999,99.1047
661.4642,99.1203
662.4284,99.1775
663.3926,99.2087
664.3569,99.1409
665.3211,98.9143
666.2853,98.5051
667.2496,97.9892
668.2138,97.6068
669.1780,97.5909
670.1423,97.8741
671.1065,98.2239
672.0707,98.5062
673.0350,98.6992
673.9992,98.8231
674.9634,98.9021
675.9277,98.9542
676.8919,98.996
677.8561,99.049
678.8204,99.1397
679.7846,99.2905
680.7488,99.5059
681.7131,99.7666
682.6773,100.037
683.6415,100.285
684.6058,100.498
685.5700,100.68
686.5342,100.84
687.4985,100.977
688.4627,101.074
689.4269,101.104
690.3912,101.05
691.3554,100.931
692.3196,100.816
693.2839,100.813
694.2481,100.984
695.2123,101.285
696.1766,101.611
697.1408,101.873
698.1050,102.023
699.0693,102.054
700.0335,101.994
700.9977,101.884
701.9620,101.763
702.9262,101.657
703.8904,101.58
704.8547,101.539
705.8189,101.538
706.7831,101.569
707.7474,101.617
708.7116,101.653
709.6758,101.651
710.6401,101.592
711.6043,101.472
712.5685,101.299
713.5328,101.088
714.4970,100.855
715.4612,100.798
716.4255,100.545
717.3897,100.328
718.3539,100.187
719.3182,100.158
720.2824,100.257
721.2466,100.463
722.2109,100.721
723.1751,100.971
724.1393,101.163
725.1036,101.279
726.0678,101.326
727.0320,101.33
727.9963,101.325
728.9605,101.331
729.9247,101.353
730.8890,101.37
731.8532,101.35
732.8174,101.26
733.7817,101.082
734.7459,100.815
735.7101,100.47
736.6744,100.062
737.6386,99.6009
738.6028,99.0923
739.5671,98.544
740.5313,97.9752
741.4955,97.4189
742.4598,96.9166
743.4240,96.506
744.3882,96.2095
745.3525,96.0281
746.3167,95.9456
747.2809,95.9384
748.2452,95.9848
749.2094,96.071
750.1736,96.1891
751.1379,96.3339
752.1021,96.4989
753.0663,96.6766
754.0306,96.8606
754.9948,97.046
755.9590,97.2273
756.9233,97.3943
757.8875,97.5311
758.8517,97.6204
759.8160,97.6517
760.7802,97.6286
761.7444,97.5702
762.7087,97.5058
763.6729,97.4661
764.6371,97.476
765.6014,97.5523
766.5656,97.7031
767.5298,97.9282
768.4941,98.2177
769.4583,98.5518
770.4225,98.9028
771.3868,99.2413
772.3510,99.542
773.3152,99.7869
774.2795,99.9641
775.2437,100.066
776.2079,100.089
777.1722,100.037
778.1364,99.9206
779.1006,99.7593
780.0649,99.572
781.0291,99.3715
781.9933,99.1617
782.9576,98.9416
783.9218,98.7116
784.8860,98.4772
785.8503,98.248
786.8145,98.0321
787.7787,97.8338
788.7430,97.6545
789.7072,97.497
790.6714,97.368
791.6357,97.2741
792.5999,97.2154
793.5641,97.1791
794.5284,97.1421
795.4926,97.0793
796.4568,96.9765
797.4211,96.8372
798.3853,96.6803
799.3495,96.5294
800.3138,96.3985
801.2780,96.2843
802.2422,96.167
803.2065,96.0204
804.1707,95.8252
805.1349,95.578
806.0992,95.2927
807.0634,94.9929
808.0276,94.7009
808.9919,94.4289
809.9561,94.1777
810.9203,93.9419
811.8846,93.7189
812.8488,93.5147
813.8130,93.3441
814.7773,93.2238
815.7415,93.1639
816.7057,93.1621
817.6700,93.2045
818.6342,93.2714
819.5984,93.3455
820.5627,93.418
821.5269,93.4895
822.4911,93.5662
823.4554,93.6549
824.4196,93.758
825.3839,93.8725
826.3481,93.9905
827.3123,94.1023
828.2766,94.198
829.2408,94.2685
830.2050,94.3062
831.1693,94.3049
832.1335,94.2598
833.0977,94.169
834.0620,94.0339
835.0262,93.86
835.9904,93.6554
836.9547,93.4293
837.9189,93.1886
838.8831,92.9366
839.8474,92.673
840.8116,92.3963
841.7758,92.1068
842.7401,91.8091
843.7043,91.5115
844.6685,91.2232
845.6328,90.95
846.5970,90.693
847.5612,90.4493
848.5255,90.2161
849.4897,89.9948
850.4539,89.7923
851.4182,89.6183
852.3824,89.4795
853.3466,89.3756
854.3109,89.2983
855.2751,89.2353
856.2393,89.1769
857.2036,89.1207
858.1678,89.0717
859.1320,89.0388
860.0963,89.0284
861.0605,89.042
862.0247,89.0773
862.9890,89.1327
863.9532,89.2102
864.9174,89.3147
865.8817,89.4495
866.8459,89.6119
867.8101,89.7939
868.7744,89.9869
869.7386,90.1872
870.7028,90.3957
871.6671,90.6109
872.6313,90.8195
873.5955,90.9926
874.5598,91.0947
875.5240,91.1013
876.4882,91.0153
877.4525,90.8698
878.4167,90.714
879.3809,90.5906
880.3452,90.5188
881.3094,90.4921
882.2736,90.4911
883.2379,90.4992
884.2021,90.5098
885.1663,90.5224
886.1306,90.5336
887.0948,90.5348
888.0590,90.5188
889.0233,90.4913
889.9875,90.4753
890.9517,90.5031
891.9160,90.5989
892.8802,90.7652
893.8444,90.98
894.8087,91.209
895.7729,91.4217
896.7371,91.603
897.7014,91.7529
898.6656,91.8804
899.6298,91.9942
900.5941,92.0991
901.5583,92.1968
902.5225,92.2877
903.4868,92.3717
904.4510,92.4464
905.4152,92.5059
906.3795,92.5414
907.3437,92.5443
908.3079,92.51
909.2722,92.4414
910.2364,92.3495
911.2006,92.2511
912.1649,92.1644
913.1291,92.1044
914.0933,92.0792
915.0576,92.0893
916.0218,92.1299
916.9860,92.1962
917.9503,92.2867
918.9145,92.4041
919.8787,92.5535
920.8430,92.7384
921.8072,92.958
922.7714,93.2069
923.7357,93.4768
924.6999,93.759
925.6641,94.0464
926.6284,94.3355
927.5926,94.6268
928.5568,94.9245
929.5211,95.2356
930.4853,95.5666
931.4495,95.9219
932.4138,96.3017
933.3780,96.7038
934.3422,97.1241
935.3065,97.5576
936.2707,97.9969
937.2349,98.4309
938.1992,98.8443
939.1634,99.2214
940.1276,99.5512
941.0919,99.8323
942.0561,100.072
943.0203,100.282
943.9846,100.47
944.9488,100.637
945.9130,100.775
946.8773,100.873
947.8415,100.922
948.8057,100.921
949.7700,100.873
950.7342,100.785
951.6984,100.663
952.6627,100.512
953.6269,100.332
954.5911,100.122
955.5554,99.8765
956.5196,99.5923
957.4838,99.2649
958.4481,98.9177
959.4123,98.6203
960.3765,98.286
961.3408,97.922
962.3050,97.5359
963.2692,97.1361
964.2335,96.7325
965.1977,96.3372
966.1619,95.963
967.1262,95.62
968.0904,95.3124
969.0546,95.0372
970.0189,94.7862
970.9831,94.5501
971.9473,94.3215
972.9116,94.0959
973.8758,93.8708
974.8400,93.6433
975.8043,93.4087
976.7685,93.1607
977.7327,92.8923
978.6970,92.5975
979.6612,92.2721
980.6254,91.9135
981.5897,91.5206
982.5539,91.0938
983.5181,90.6342
984.4824,90.1451
985.4466,89.6331
986.4108,89.1089
987.3751,88.5876
988.3393,88.087
989.3035,87.6245
990.2678,87.2135
991.2320,86.8602
992.1962,86.563
993.1605,86.3127
994.1247,86.096
995.0889,85.8989
996.0532,85.71
997.0174,85.5209
997.9816,85.3259
998.9459,85.119
999.9101,84.8918
1000.8743,84.6328
1001.8386,84.328
1002.8028,83.9635
1003.7670,83.5267
1004.7313,83.0085
1005.6955,82.4031
1006.6597,81.7085
1007.6240,80.9254
1008.5882,80.0556
1009.5524,79.1007
1010.5167,78.0637
1011.4809,76.9507
1012.4451,75.7739
1013.4094,74.5501
1014.3736,73.2962
1015.3378,72.0242
1016.3021,70.7392
1017.2663,69.4442
1018.2305,68.1442
1019.1948,66.8474
1020.1590,65.5564
1021.1232,64.2601
1022.0875,62.9335
1023.0517,61.5548
1024.0160,60.1303
1024.9802,58.7124
1025.9445,57.3908
1026.9087,56.2591
1027.8729,55.3717
1028.8372,54.7183
1029.8014,54.2308
1030.7656,53.8193
1031.7299,53.4141
1032.6941,52.9922
1033.6583,52.577
1034.6226,52.2172
1035.5868,51.9609
1036.5510,51.8367
1037.5153,51.8467
1038.4795,51.969
1039.4437,52.1663
1040.4080,52.3978
1041.3722,52.6314
1042.3364,52.8529
1043.3007,53.0673
1044.2649,53.2927
1045.2291,53.5495
1046.1934,53.8518
1047.1576,54.2059
1048.1218,54.614
1049.0861,55.0781
1050.0503,55.5993
1051.0145,56.1734
1051.9788,56.7885
1052.9430,57.4301
1053.9072,58.094
1054.8715,58.7982
1055.8357,59.5829
1056.7999,60.4904
1057.7642,61.5316
1058.7284,62.6544
1059.6926,63.7398
1060.6569,64.6363
1061.6211,65.2243
1062.5853,65.4811
1063.5496,65.5059
1064.5138,65.4866
1065.4780,65.6162
1066.4423,66.0029
1067.4065,66.62
1068.3707,67.3253
1069.3350,67.9362
1070.2992,68.3156
1071.2634,68.4239
1072.2277,68.314
1073.1919,68.0838
1074.1561,67.8217
1075.1204,67.5761
1076.0846,67.3584
1077.0488,67.1645
1078.0131,66.9958
1078.9773,66.8645
1079.9415,66.7855
1080.9058,66.7647
1081.8700,66.7939
1082.8342,66.8532
1083.7985,66.9198
1084.7627,66.9774
1085.7269,67.0232
1086.6912,67.0695
1087.6554,67.1384
1088.6196,67.2504
1089.5839,67.4107
1090.5481,67.6008
1091.5123,67.7821
1092.4766,67.911
1093.4408,67.9577
1094.4050,67.9191
1095.3693,67.8185
1096.3335,67.6925
1097.2977,67.5759
1098.2620,67.4903
1099.2262,67.4434
1100.1904,67.4344
1101.1547,67.462
1102.1189,67.5284
1103.0831,67.6391
1104.0474,67.8003
1105.0116,68.0175
1105.9758,68.2958
1106.9401,68.6418
1107.9043,69.065
1108.8685,69.5768
1109.8328,70.1876
1110.7970,70.9025
1111.7612,71.7182
1112.7255,72.6235
1113.6897,73.6019
1114.6539,74.6375
1115.6182,75.7192
1116.5824,76.8429
1117.5466,78.0098
1118.5109,79.2233
1119.4751,80.4852
1120.4393,81.7952
1121.4036,83.1496
1122.3678,84.5422
1123.3320,85.9634
1124.2963,87.3991
1125.2605,88.8298
1126.2247,90.2315
1127.1890,91.5783
1128.1532,92.8454
1129.1174,94.0113
1130.0817,95.0588
1131.0459,95.9752
1132.0101,96.7513
1132.9744,97.3812
1133.9386,97.8624
1134.9028,98.1946
1135.8671,98.3803
1136.8313,98.4227
1137.7955,98.3264
1138.7598,98.0964
1139.7240,97.7403
1140.6882,97.2446
1141.6525,96.5624
1142.6167,95.8025
1143.5809,94.9902
1144.5452,94.1534
1145.5094,93.3208
1146.4736,92.5194
1147.4379,91.7737
1148.4021,91.1043
1149.3663,90.5277
1150.3306,90.0556
1151.2948,89.6928
1152.2590,89.4353
1153.2233,89.269
1154.1875,89.1694
1155.1517,89.1054
1156.1160,89.0437
1157.0802,88.9543
1158.0444,88.8146
1159.0087,88.61
1159.9729,88.3331
1160.9371,87.982
1161.9014,87.559
1162.8656,87.0704
1163.8298,86.5269
1164.7941,85.9421
1165.7583,85.3304
1166.7225,84.7054
1167.6868,84.0783
1168.6510,83.4581
1169.6152,82.8528
1170.5795,82.2686
1171.5437,81.7088
1172.5079,81.1714
1173.4722,80.6494
1174.4364,80.1325
1175.4006,79.6116
1176.3649,79.0824
1177.3291,78.5464
1178.2933,78.0086
1179.2576,77.4736
1180.2218,76.9421
1181.1860,76.4109
1182.1503,75.8756
1183.1145,75.3343
1184.0787,74.7898
1185.0430,74.2495
1186.0072,73.7224
1186.9714,73.2149
1187.9357,72.7282
1188.8999,72.2574
1189.8641,71.7944
1190.8284,71.3315
1191.7926,70.8656
1192.7568,70.3997
1193.7211,69.9421
1194.6853,69.5027
1195.6495,69.0896
1196.6138,68.7057
1197.5780,68.3492
1198.5422,68.0164
1199.5065,67.7119
1200.4707,67.4215
1201.4349,67.1564
1202.3992,66.9207
1203.3634,66.7167
1204.3276,66.5444
1205.2919,66.4023
1206.2561,66.2889
1207.2203,66.2041
1208.1846,66.1488
1209.1488,66.1244
1210.1130,66.1314
1211.0773,66.1691
1212.0415,66.2354
1213.0057,66.3279
1213.9700,66.4444
1214.9342,66.5836
1215.8984,66.745
1216.8627,66.9281
1217.8269,67.131
1218.7911,67.3503
1219.7554,67.5807
1220.7196,67.8171
1221.6838,68.0548
1222.6481,68.2901
1223.6123,68.5191
1224.5765,68.7379
1225.5408,68.9431
1226.5050,69.1323
1227.4692,69.305
1228.4335,69.4607
1229.3977,69.5991
1230.3619,69.7213
1231.3262,69.8329
1232.2904,69.9454
1233.2546,70.0724
1234.2189,70.2202
1235.1831,70.3784
1236.1473,70.5192
1237.1116,70.6103
1238.0758,70.6371
1239.0400,70.6189
1240.0043,70.6068
1240.9685,70.6608
1241.9327,70.8154
1242.8970,71.0584
1243.8612,71.3332
1244.8254,71.5669
1245.7897,71.7065
1246.7539,71.7417
1247.7181,71.7017
1248.6824,71.6328
1249.6466,71.5706
1250.6108,71.5248
1251.5751,71.4805
1252.5393,71.4125
1253.5035,71.301
1254.4678,71.1409
1255.4320,70.9429
1256.3962,70.7271
1257.3605,70.5165
1258.3247,70.3319
1259.2889,70.1893
1260.2532,70.0996
1261.2174,70.0682
1262.1816,70.096
1263.1459,70.1798
1264.1101,70.3124
1265.0743,70.4828
1266.0386,70.6769
1267.0028,70.8812
1267.9670,71.0855
1268.9313,71.2862
1269.8955,71.4863
1270.8597,71.6928
1271.8240,71.9134
1272.7882,72.1535
1273.7524,72.416
1274.7167,72.7012
1275.6809,73.0086
1276.6451,73.3361
1277.6094,73.6802
1278.5736,74.0349
1279.5378,74.3924
1280.5021,74.7444
1281.4663,75.0842
1282.4305,75.4081
1283.3948,75.716
1284.3590,76.0113
1285.3232,76.2995
1286.2875,76.5864
1287.2517,76.876
1288.2159,77.1697
1289.1802,77.4662
1290.1444,77.7626
1291.1086,78.0566
1292.0729,78.3482
1293.0371,78.6394
1294.0013,78.9326
1294.9656,79.2288
1295.9298,79.5261
1296.8940,79.8199
1297.8583,80.1039
1298.8225,80.3722
1299.7867,80.6197
1300.7510,80.8423
1301.7152,81.0376
1302.6794,81.206
1303.6437,81.3507
1304.6079,81.4767
1305.5721,81.5888
1306.5364,81.6887
1307.5006,81.7756
1308.4648,81.8478
1309.4291,81.9056
1310.3933,81.9525
1311.3575,81.9942
1312.3218,82.0352
1313.2860,82.0765
1314.2502,82.1166
1315.2145,82.1545
1316.1787,82.1926
1317.1429,82.2359
1318.1072,82.2884
1319.0714,82.3485
1320.0356,82.4082
1320.9999,82.457
1321.9641,82.4887
1322.9283,82.5037
1323.8926,82.5087
1324.8568,82.5119
1325.8210,82.5197
1326.7853,82.5354
1327.7495,82.56
1328.7137,82.5947
1329.6780,82.642
1330.6422,82.704
1331.6064,82.7781
1332.5707,82.8562
1333.5349,82.9254
1334.4991,82.9754
1335.4634,83.004
1336.4276,83.0225
1337.3918,83.0542
1338.3561,83.1246
1339.3203,83.2425
1340.2845,83.3874
1341.2488,83.5213
1342.2130,83.6127
1343.1772,83.6493
1344.1415,83.634
1345.1057,83.5772
1346.0699,83.491
1347.0342,83.3872
1347.9984,83.2749
1348.9626,83.1591
1349.9269,83.0402
1350.8911,82.916
1351.8553,82.7859
1352.8196,82.6537
1353.7838,82.5269
1354.7480,82.4132
1355.7123,82.3142
1356.6765,82.2239
1357.6407,82.1334
1358.6050,82.0388
1359.5692,81.947
1360.5334,81.8776
1361.4977,81.8545
1362.4619,81.8877
1363.4261,81.9595
1364.3904,82.0372
1365.3546,82.0984
1366.3188,82.139
1367.2831,82.1637
1368.2473,82.1749
1369.2115,82.1678
1370.1758,82.1349
1371.1400,82.0733
1372.1042,81.9921
1373.0685,81.913
1374.0327,81.8614
1374.9969,81.8504
1375.9612,81.8721
1376.9254,81.9107
1377.8896,81.9613
1378.8539,82.0345
1379.8181,82.1447
1380.7823,82.2961
1381.7466,82.4786
1382.7108,82.6802
1383.6750,82.9036
1384.6393,83.1719
1385.6035,83.5089
1386.5677,83.8961
1387.5320,84.2426
1388.4962,84.4246
1389.4604,84.3719
1390.4247,84.1043
1391.3889,83.7067
1392.3531,83.2998
1393.3174,83.0213
1394.2816,82.9857
1395.2458,83.2124
1396.2101,83.5836
1397.1743,83.9078
1398.1385,84.0429
1399.1028,83.9614
1400.0670,83.7216
1401.0313,83.4027
1401.9955,83.0635
1402.9597,82.7371
1403.9240,82.4439
1404.8882,82.2017
1405.8524,82.0218
1406.8167,81.9012
1407.7809,81.8262
1408.7451,81.7846
1409.7094,81.7718
1410.6736,81.785
1411.6378,81.8128
1412.6021,81.8347
1413.5663,81.831
1414.5305,81.7936
1415.4948,81.7269
1416.4590,81.6426
1417.4232,81.5568
1418.3875,81.4795
1419.3517,81.3981
1420.3159,81.2824
1421.2802,81.1155
1422.2444,80.9055
1423.2086,80.6725
1424.1729,80.4353
1425.1371,80.2075
1426.1013,79.9967
1427.0656,79.8068
1428.0298,79.6399
1428.9940,79.4973
1429.9583,79.377
1430.9225,79.2711
1431.8867,79.1682
1432.8510,79.0571
1433.8152,78.9271
1434.7794,78.7674
1435.7437,78.5737
1436.7079,78.3537
1437.6721,78.1162
1438.6364,77.8608
1439.6006,77.5871
1440.5648,77.3017
1441.5291,77.0129
1442.4933,76.7254
1443.4575,76.4373
1444.4218,76.1413
1445.3860,75.828
1446.3502,75.4934
1447.3145,75.1462
1448.2787,74.8058
1449.2429,74.4908
1450.2072,74.2085
1451.1714,73.9581
1452.1356,73.7376
1453.0999,73.5457
1454.0641,73.3802
1455.0283,73.2492
1455.9926,73.2006
1456.9568,73.3012
1457.9210,73.493
1458.8853,73.6116
1459.8495,73.6069
1460.8137,73.5506
1461.7780,73.5443
1462.7422,73.6946
1463.7064,74.1036
1464.6707,74.8044
1465.6349,75.6828
1466.5991,76.5446
1467.5634,77.2812
1468.5276,77.9144
1469.4918,78.533
1470.4561,79.2403
1471.4203,80.1249
1472.3845,81.1957
1473.3488,82.2904
1474.3130,83.1555
1475.2772,83.6745
1476.2415,83.9026
1477.2057,83.9432
1478.1699,83.8818
1479.1342,83.7892
1480.0984,83.7322
1481.0626,83.7659
1482.0269,83.9128
1482.9911,84.1522
1483.9553,84.4338
1484.9196,84.705
1485.8838,84.9282
1486.8480,85.087
1487.8123,85.1903
1488.7765,85.2675
1489.7407,85.3299
1490.7050,85.3468
1491.6692,85.2869
1492.6334,85.1502
1493.5977,84.9474
1494.5619,84.6754
1495.5261,84.3148
1496.4904,83.8518
1497.4546,83.3081
1498.4188,82.7359
1499.3831,82.1799
1500.3473,81.6654
1501.3115,81.2108
1502.2758,80.8282
1503.2400,80.5104
1504.2042,80.2189
1505.1685,79.8912
1506.1327,79.5119
1507.0969,79.1994
1508.0612,79.0293
1509.0254,78.8749
1509.9896,78.6405
1510.9539,78.3401
1511.9181,78.0278
1512.8823,77.7778
1513.8466,77.6908
1514.8108,77.876
1515.7750,78.3943
1516.7393,79.2131
1517.7035,80.2512
1518.6677,81.4844
1519.6320,82.98
1520.5962,84.7773
1521.5604,86.7262
1522.5247,88.5313
1523.4889,90.0068
1524.4531,91.2015
1525.4174,92.2735
1526.3816,93.3105
1527.3458,94.2732
1528.3101,95.0768
1529.2743,95.6912
1530.2385,96.1705
1531.2028,96.6181
1532.1670,97.1263
1533.1312,97.7007
1534.0955,98.2407
1535.0597,98.6396
1536.0239,98.8798
1536.9882,99.0053
1537.9524,99.0496
1538.9166,99.0246
1539.8809,99.003
1540.8451,99.159
1541.8093,99.5207
1542.7736,99.903
1543.7378,100.195
1544.7020,100.392
1545.6663,100.505
1546.6305,100.541
1547.5947,100.513
1548.5590,100.47
1549.5232,100.405
1550.4874,100.322
1551.4517,100.211
1552.4159,100.067
1553.3801,99.9001
1554.3444,99.7354
1555.3086,99.5818
1556.2728,99.4177
1557.2371,99.2232
1558.2013,99.0727
1559.1655,99.0374
1560.1298,98.959
1561.0940,98.7126
1562.0582,98.3564
1563.0225,97.9806
1563.9867,97.633
1564.9509,97.3218
1565.9152,97.0284
1566.8794,96.7177
1567.8436,96.3546
1568.8079,95.931
1569.7721,95.4772
1570.7363,95.0372
1571.7006,94.634
1572.6648,94.2551
1573.6290,93.8517
1574.5933,93.3567
1575.5575,92.744
1576.5217,92.0875
1577.4860,91.4944
1578.4502,90.9837
1579.4144,90.5043
1580.3787,90.007
1581.3429,89.4642
1582.3071,88.87
1583.2714,88.2378
1584.2356,87.5903
1585.1998,86.9418
1586.1641,86.2926
1587.1283,85.6385
1588.0925,84.9832
1589.0568,84.3386
1590.0210,83.7169
1590.9852,83.124
1591.9495,82.5625
1592.9137,82.0393
1593.8779,81.5688
1594.8422,81.1662
1595.8064,80.8365
1596.7706,80.5719
1597.7349,80.358
1598.6991,80.1836
1599.6633,80.0442
1600.6276,79.9413
1601.5918,79.8779
1602.5560,79.8531
1603.5203,79.8598
1604.4845,79.8877
1605.4487,79.9302
1606.4130,79.9919
1607.3772,80.0895
1608.3414,80.2395
1609.3057,80.4389
1610.2699,80.6591
1611.2341,80.8678
1612.1984,81.0591
1613.1626,81.2646
1614.1268,81.5535
1615.0911,82.0161
1616.0553,82.6904
1617.0195,83.4568
1617.9838,84.1072
1618.9480,84.5573
1619.9122,84.8847
1620.8765,85.2176
1621.8407,85.6495
1622.8049,86.1991
1623.7692,86.8038
1624.7334,87.373
1625.6976,87.8714
1626.6619,88.3329
1627.6261,88.7986
1628.5903,89.2621
1629.5546,89.6787
1630.5188,90.0162
1631.4830,90.2826
1632.4473,90.5118
1633.4115,90.7419
1634.3757,91.0183
1635.3400,91.3887
1636.3042,91.8241
1637.2684,92.1938
1638.2327,92.4219
1639.1969,92.5446
1640.1611,92.6245
1641.1254,92.698
1642.0896,92.773
1643.0538,92.8368
1644.0181,92.8634
1644.9823,92.8329
1645.9465,92.7686
1646.9108,92.7303
1647.8750,92.7433
1648.8392,92.7954
1649.8035,92.8808
1650.7677,92.9841
1651.7319,93.0627
1652.6962,93.0956
1653.6604,93.0995
1654.6246,93.0129
1655.5889,92.7879
1656.5531,92.4994
1657.5173,92.2375
1658.4816,92.0374
1659.4458,91.8842
1660.4100,91.7406
1661.3743,91.5794
1662.3385,91.4003
1663.3027,91.216
1664.2670,91.0329
1665.2312,90.8506
1666.1954,90.6598
1667.1597,90.4401
1668.1239,90.1764
1669.0881,89.8914
1670.0524,89.6427
1671.0166,89.4649
1671.9808,89.344
1672.9451,89.2488
1673.9093,89.1505
1674.8735,89.0183
1675.8378,88.8235
1676.8020,88.5575
1677.7662,88.2466
1678.7305,87.9396
1679.6947,87.677
1680.6589,87.4648
1681.6232,87.2696
1682.5874,87.0474
1683.5516,86.7994
1684.5159,86.5582
1685.4801,86.3065
1686.4443,86.0119
1687.4086,85.6847
1688.3728,85.3565
1689.3370,85.0524
1690.3013,84.7847
1691.2655,84.5512
1692.2297,84.332
1693.1940,84.0915
1694.1582,83.7911
1695.1224,83.4176
1696.0867,83.0147
1697.0509,82.6809
1698.0151,82.502
1698.9794,82.4614
1699.9436,82.4401
1700.9078,82.3298
1701.8721,82.1203
1702.8363,81.8802
1703.8005,81.6923
1704.7648,81.6118
1705.7290,81.6491
1706.6932,81.7687
1707.6575,81.9133
1708.6217,82.0423
1709.5859,82.1506
1710.5502,82.2545
1711.5144,82.369
1712.4786,82.498
1713.4429,82.6436
1714.4071,82.8316
1715.3713,83.141
1716.3356,83.6679
1717.2998,84.3669
1718.2640,85.0067
1719.2283,85.4251
1720.1925,85.6611
1721.1567,85.8372
1722.1210,86.0467
1723.0852,86.3228
1724.0494,86.6483
1725.0137,86.9816
1725.9779,87.2861
1726.9421,87.5486
1727.9064,87.7786
1728.8706,87.9965
1729.8348,88.2262
1730.7991,88.4964
1731.7633,88.8465
1732.7275,89.3075
1733.6918,89.8327
1734.6560,90.2799
1735.6202,90.5511
1736.5845,90.6872
1737.5487,90.7966
1738.5129,90.9636
1739.4772,91.2152
1740.4414,91.523
1741.4056,91.8294
1742.3699,92.0888
1743.3341,92.294
1744.2983,92.4674
1745.2626,92.6354
1746.2268,92.8176
1747.1910,93.0346
1748.1553,93.3175
1749.1195,93.687
1750.0837,94.1061
1751.0480,94.4817
1752.0122,94.7436
1752.9764,94.8961
1753.9407,94.9909
1754.9049,95.08
1755.8691,95.1905
1756.8334,95.3234
1757.7976,95.4672
1758.7618,95.6146
1759.7261,95.7704
1760.6903,95.9431
1761.6545,96.129
1762.6188,96.3076
1763.5830,96.457
1764.5472,96.5731
1765.5115,96.6687
1766.4757,96.7591
1767.4399,96.8489
1768.4042,96.9327
1769.3684,97.0079
1770.3326,97.0922
1771.2969,97.2242
1772.2611,97.4252
1773.2253,97.6578
1774.1896,97.8574
1775.1538,97.9985
1776.1180,98.1044
1777.0823,98.2122
1778.0465,98.344
1779.0107,98.5006
1779.9750,98.6684
1780.9392,98.8326
1781.9034,98.9856
1782.8677,99.1262
1783.8319,99.2513
1784.7961,99.3515
1785.7604,99.418
1786.7246,99.4532
1787.6888,99.4711
1788.6531,99.4874
1789.6173,99.5085
1790.5815,99.5339
1791.5458,99.5672
1792.5100,99.6094
1793.4742,99.644
1794.4385,99.653
1795.4027,99.6431
1796.3669,99.6371
1797.3312,99.6513
1798.2954,99.6873
1799.2596,99.7375
1800.2239,99.7931
1801.1881,99.8457
1802.1523,99.8871
1803.1166,99.9123
1804.0808,99.939
1805.0450,99.9652
1806.0093,99.9829
1806.9735,99.9944
1807.9377,100.003
1808.9020,100.017
1809.8662,100.045
1810.8304,100.091
1811.7947,100.151
1812.7589,100.212
1813.7231,100.267
1814.6874,100.312
1815.6516,100.349
1816.6158,100.379
1817.5801,100.402
1818.5443,100.417
1819.5085,100.427
1820.4728,100.435
1821.4370,100.448
1822.4012,100.466
1823.3655,100.486
1824.3297,100.501
1825.2939,100.504
1826.2582,100.492
1827.2224,100.474
1828.1866,100.463
1829.1509,100.478
1830.1151,100.518
1831.0793,100.566
1832.0436,100.596
1833.0078,100.601
1833.9720,100.593
1834.9363,100.586
1835.9005,100.585
1836.8647,100.59
1837.8290,100.598
1838.7932,100.609
1839.7574,100.628
1840.7217,100.659
1841.6859,100.693
1842.6501,100.72
1843.6144,100.733
1844.5786,100.734
1845.5428,100.724
1846.5071,100.705
1847.4713,100.687
1848.4355,100.681
1849.3998,100.693
1850.3640,100.715
1851.3282,100.736
1852.2925,100.748
1853.2567,100.75
1854.2209,100.744
1855.1852,100.737
1856.1494,100.729
1857.1136,100.723
1858.0779,100.719
1859.0421,100.719
1860.0063,100.721
1860.9706,100.719
1861.9348,100.707
1862.8990,100.682
1863.8633,100.643
1864.8275,100.597
1865.7917,100.553
1866.7560,100.524
1867.7202,100.53
1868.6844,100.581
1869.6487,100.654
1870.6129,100.713
1871.5771,100.739
1872.5414,100.74
1873.5056,100.734
1874.4698,100.731
1875.4341,100.731
1876.3983,100.733
1877.3625,100.732
1878.3268,100.729
1879.2910,100.726
1880.2552,100.723
1881.2195,100.719
1882.1837,100.711
1883.1479,100.699
1884.1122,100.684
1885.0764,100.67
1886.0406,100.661
1887.0049,100.659
1887.9691,100.663
1888.9333,100.669
1889.8976,100.673
1890.8618,100.667
1891.8260,100.651
1892.7903,100.63
1893.7545,100.612
1894.7188,100.604
1895.6830,100.607
1896.6472,100.619
1897.6115,100.629
1898.5757,100.633
1899.5399,100.627
1900.5042,100.615
1901.4684,100.599
1902.4326,100.583
1903.3969,100.565
1904.3611,100.544
1905.3253,100.519
1906.2896,100.489
1907.2538,100.461
1908.2180,100.442
1909.1823,100.436
1910.1465,100.44
1911.1107,100.445
1912.0750,100.445
1913.0392,100.439
1914.0034,100.432
1914.9677,100.429
1915.9319,100.43
1916.8961,100.432
1917.8604,100.425
1918.8246,100.403
1919.7888,100.369
1920.7531,100.332
1921.7173,100.307
1922.6815,100.303
1923.6458,100.319
1924.6100,100.343
1925.5742,100.364
1926.5385,100.373
1927.5027,100.373
1928.4669,100.366
1929.4312,100.357
1930.3954,100.346
1931.3596,100.336
1932.3239,100.329
1933.2881,100.329
1934.2523,100.336
1935.2166,100.347
1936.1808,100.357
1937.1450,100.362
1938.1093,100.358
1939.0735,100.348
1940.0377,100.333
1941.0020,100.318
1941.9662,100.309
1942.9304,100.308
1943.8947,100.315
1944.8589,100.327
1945.8231,100.341
1946.7874,100.359
1947.7516,100.379
1948.7158,100.399
1949.6801,100.415
1950.6443,100.425
1951.6085,100.431
1952.5728,100.435
1953.5370,100.441
1954.5012,100.452
1955.4655,100.466
1956.4297,100.481
1957.3939,100.495
1958.3582,100.507
1959.3224,100.516
1960.2866,100.523
1961.2509,100.525
1962.2151,100.522
1963.1793,100.514
1964.1436,100.505
1965.1078,100.499
1966.0720,100.502
1967.0363,100.516
1968.0005,100.539
1968.9647,100.562
1969.9290,100.58
1970.8932,100.59
1971.8574,100.594
1972.8217,100.595
1973.7859,100.596
1974.7501,100.599
1975.7144,100.602
1976.6786,100.606
1977.6428,100.609
1978.6071,100.61
1979.5713,100.609
1980.5355,100.607
1981.4998,100.605
1982.4640,100.603
1983.4282,100.602
1984.3925,100.598
1985.3567,100.592
1986.3209,100.583
1987.2852,100.572
1988.2494,100.562
1989.2136,100.555
1990.1779,100.554
1991.1421,100.558
1992.1063,100.566
1993.0706,100.574
1994.0348,100.579
1994.9990,100.578
1995.9633,100.572
1996.9275,100.565
1997.8917,100.558
1998.8560,100.554
1999.8202,100.554
2000.7844,100.557
2001.7487,100.561
2002.7129,100.562
2003.6771,100.558
2004.6414,100.548
2005.6056,100.534
2006.5698,100.52
2007.5341,100.508
2008.4983,100.503
2009.4625,100.501
2010.4268,100.501
2011.3910,100.498
2012.3552,100.49
2013.3195,100.476
2014.2837,100.459
2015.2479,100.444
2016.2122,100.434
2017.1764,100.431
2018.1406,100.433
2019.1049,100.436
2020.0691,100.437
2021.0333,100.436
2021.9976,100.431
2022.9618,100.426
2023.9260,100.423
2024.8903,100.42
2025.8545,100.418
2026.8187,100.415
2027.7830,100.41
2028.7472,100.402
2029.7114,100.393
2030.6757,100.383
2031.6399,100.374
2032.6041,100.367
2033.5684,100.363
2034.5326,100.362
2035.4968,100.362
2036.4611,100.359
2037.4253,100.351
2038.3895,100.339
2039.3538,100.324
2040.3180,100.311
2041.2822,100.303
2042.2465,100.3
2043.2107,100.301
2044.1749,100.302
2045.1392,100.301
2046.1034,100.296
2047.0676,100.29
2048.0320,100.281
2048.9961,100.273
2049.9604,100.266
2050.9246,100.259
2051.8889,100.254
2052.8530,100.25
2053.8174,100.247
2054.7815,100.242
2055.7458,100.236
2056.7100,100.229
2057.6743,100.221
2058.6384,100.213
2059.6028,100.205
2060.5669,100.195
2061.5313,100.184
2062.4954,100.174
2063.4597,100.166
2064.4238,100.165
2065.3882,100.171
2066.3523,100.182
2067.3167,100.194
2068.2808,100.204
2069.2451,100.21
2070.2092,100.211
2071.1736,100.21
2072.1377,100.209
2073.1021,100.209
2074.0662,100.21
2075.0305,100.214
2075.9946,100.217
2076.9590,100.22
2077.9231,100.222
2078.8875,100.223
2079.8516,100.223
2080.8159,100.222
2081.7800,100.221
2082.7444,100.219
2083.7085,100.217
2084.6729,100.215
2085.6370,100.214
2086.6013,100.215
2087.5654,100.218
2088.5298,100.221
2089.4939,100.223
2090.4583,100.223
2091.4224,100.22
2092.3867,100.214
2093.3508,100.208
2094.3152,100.201
2095.2793,100.197
2096.2437,100.196
2097.2078,100.195
2098.1721,100.195
2099.1362,100.193
2100.1006,100.187
2101.0647,100.18
2102.0291,100.173
2102.9932,100.166
2103.9575,100.162
2104.9216,100.16
2105.8860,100.16
2106.8501,100.16
2107.8145,100.158
2108.7786,100.154
2109.7429,100.148
2110.7070,100.14
2111.6714,100.133
2112.6355,100.127
2113.5999,100.123
2114.5640,100.123
2115.5283,100.125
2116.4924,100.127
2117.4568,100.128
2118.4209,100.125
2119.3853,100.119
2120.3494,100.112
2121.3137,100.105
2122.2778,100.099
2123.2422,100.095
2124.2063,100.09
2125.1707,100.087
2126.1348,100.083
2127.0991,100.082
2128.0632,100.082
2129.0276,100.086
2129.9917,100.091
2130.9561,100.095
2131.9202,100.096
2132.8845,100.094
2133.8486,100.091
2134.8130,100.088
2135.7771,100.09
2136.7415,100.096
2137.7056,100.107
2138.6699,100.119
2139.6340,100.128
2140.5984,100.133
2141.5625,100.134
2142.5269,100.134
2143.4910,100.135
2144.4553,100.138
2145.4194,100.144
2146.3838,100.15
2147.3479,100.156
2148.3123,100.16
2149.2764,100.162
2150.2407,100.163
2151.2048,100.163
2152.1692,100.161
2153.1333,100.159
2154.0977,100.157
2155.0618,100.156
2156.0261,100.157
2156.9902,100.159
2157.9546,100.161
2158.9187,100.163
2159.8831,100.164
2160.8472,100.165
2161.8115,100.168
2162.7756,100.171
2163.7400,100.176
2164.7041,100.18
2165.6685,100.182
2166.6326,100.181
2167.5969,100.179
2168.5610,100.174
2169.5254,100.169
2170.4895,100.163
2171.4539,100.158
2172.4180,100.154
2173.3823,100.151
2174.3464,100.149
2175.3108,100.146
2176.2749,100.145
2177.2393,100.143
2178.2034,100.142
2179.1677,100.142
2180.1318,100.14
2181.0962,100.137
2182.0603,100.132
2183.0247,100.125
2183.9888,100.118
2184.9531,100.112
2185.9172,100.108
2186.8816,100.108
2187.8457,100.111
2188.8101,100.116
2189.7742,100.12
2190.7385,100.121
2191.7026,100.121
2192.6670,100.118
2193.6311,100.116
2194.5955,100.116
2195.5596,100.118
2196.5239,100.121
2197.4880,100.124
2198.4524,100.125
2199.4165,100.122
2200.3809,100.117
2201.3450,100.111
2202.3093,100.105
2203.2734,100.102
2204.2378,100.1
2205.2019,100.1
2206.1663,100.101
2207.1304,100.103
2208.0947,100.106
2209.0588,100.11
2210.0232,100.112
2210.9873,100.111
2211.9517,100.105
2212.9158,100.096
2213.8801,100.085
2214.8442,100.076
2215.8086,100.069
2216.7727,100.066
2217.7371,100.063
2218.7012,100.059
2219.6655,100.054
2220.6296,100.049
2221.5940,100.045
2222.5581,100.043
2223.5225,100.043
2224.4866,100.044
2225.4509,100.042
2226.4150,100.036
2227.3794,100.025
2228.3435,100.01
2229.3079,99.9929
2230.2720,99.9753
2231.2363,99.9589
2232.2004,99.9449
2233.1648,99.9341
2234.1289,99.9265
2235.0933,99.9217
2236.0574,99.919
2237.0217,99.9166
2237.9858,99.913
2238.9502,99.9066
2239.9143,99.8968
2240.8787,99.8841
2241.8428,99.8693
2242.8071,99.8538
2243.7712,99.8384
2244.7356,99.8237
2245.6997,99.8101
2246.6641,99.798
2247.6282,99.7877
2248.5925,99.7789
2249.5566,99.7703
2250.5210,99.7599
2251.4851,99.746
2252.4495,99.7284
2253.4136,99.7082
2254.3779,99.6878
2255.3420,99.6693
2256.3064,99.6535
2257.2705,99.6401
2258.2349,99.6278
2259.1990,99.6155
2260.1633,99.6029
2261.1274,99.5899
2262.0918,99.5768
2263.0559,99.5636
2264.0203,99.5502
2264.9844,99.5368
2265.9487,99.5238
2266.9128,99.5117
2267.8772,99.501
2268.8413,99.4918
2269.8057,99.4837
2270.7698,99.4768
2271.7341,99.4711
2272.6982,99.4665
2273.6626,99.4631
2274.6267,99.4603
2275.5911,99.458
2276.5552,99.456
2277.5195,99.4544
2278.4836,99.4534
2279.4480,99.4531
2280.4121,99.4526
2281.3765,99.4505
2282.3406,99.4452
2283.3049,99.4349
2284.2690,99.4183
2285.2334,99.3956
2286.1975,99.3681
2287.1619,99.3378
2288.1260,99.307
2289.0903,99.2771
2290.0544,99.2481
2291.0188,99.2201
2291.9829,99.1935
2292.9473,99.1697
2293.9114,99.1503
2294.8757,99.1367
2295.8398,99.1287
2296.8042,99.1254
2297.7683,99.1262
2298.7327,99.1319
2299.6968,99.1445
2300.6611,99.1654
2301.6252,99.194
2302.5896,99.2264
2303.5537,99.2562
2304.5181,99.277
2305.4822,99.2853
2306.4465,99.283
2307.4106,99.2777
2308.3750,99.2806
2309.3391,99.3015
2310.3035,99.3444
2311.2676,99.4047
2312.2319,99.4712
2313.1960,99.5305
2314.1604,99.5745
2315.1245,99.6031
2316.0889,99.6245
2317.0530,99.6498
2318.0173,99.6869
2318.9814,99.7343
2319.9458,99.7773
2320.9099,99.7899
2321.8743,99.7456
2322.8384,99.6323
2323.8027,99.4646
2324.7668,99.282
2325.7312,99.1335
2326.6953,99.0577
2327.6597,99.0657
2328.6238,99.1358
2329.5881,99.2202
2330.5522,99.2649
2331.5166,99.2351
2332.4807,99.131
2333.4451,98.9842
2334.4092,98.8391
2335.3735,98.7313
2336.3376,98.6732
2337.3020,98.6518
2338.2661,98.637
2339.2305,98.5999
2340.1946,98.5347
2341.1589,98.4909
2342.1230,98.5271
2343.0874,98.6836
2344.0515,98.9088
2345.0159,99.0604
2345.9800,99.0425
2346.9443,98.8928
2347.9084,98.7271
2348.8728,98.6457
2349.8369,98.6825
2350.8013,98.7987
2351.7654,98.9068
2352.7297,98.9246
2353.6938,98.8357
2354.6582,98.6965
2355.6223,98.5688
2356.5867,98.4635
2357.5508,98.3625
2358.5151,98.2645
2359.4792,98.194
2360.4436,98.1753
2361.4077,98.2158
2362.3721,98.3136
2363.3362,98.4653
2364.3005,98.6628
2365.2646,98.8879
2366.2290,99.1186
2367.1931,99.3395
2368.1575,99.5452
2369.1216,99.7345
2370.0859,99.9043
2371.0500,100.049
2372.0144,100.162
2372.9785,100.237
2373.9429,100.27
2374.9070,100.258
2375.8713,100.201
2376.8354,100.107
2377.7998,99.9884
2378.7639,99.8585
2379.7283,99.732
2380.6924,99.6199
2381.6567,99.5294
2382.6208,99.4634
2383.5852,99.4213
2384.5493,99.3999
2385.5137,99.3938
2386.4778,99.397
2387.4421,99.404
2388.4063,99.4109
2389.3706,99.4161
2390.3347,99.4197
2391.2991,99.4231
2392.2632,99.4278
2393.2275,99.4345
2394.1917,99.4427
2395.1560,99.4517
2396.1201,99.4603
2397.0845,99.4679
2398.0486,99.4741
2399.0129,99.4789
2399.9771,99.4827
2400.9414,99.4853
2401.9055,99.4871
2402.8699,99.4884
2403.8340,99.49
2404.7983,99.493
2405.7625,99.4979
2406.7268,99.5045
2407.6909,99.5118
2408.6553,99.5184
2409.6194,99.5235
2410.5837,99.527
2411.5479,99.5299
2412.5122,99.5334
2413.4763,99.5383
2414.4407,99.5448
2415.4048,99.5525
2416.3691,99.5612
2417.3333,99.5707
2418.2976,99.5806
2419.2617,99.5896
2420.2261,99.596
2421.1902,99.5984
2422.1545,99.5974
2423.1187,99.5955
2424.0830,99.5964
2425.0471,99.6031
2426.0115,99.6162
2426.9756,99.6335
2427.9399,99.651
2428.9041,99.6653
2429.8684,99.6751
2430.8325,99.681
2431.7969,99.6848
2432.7610,99.6881
2433.7253,99.6914
2434.6895,99.6947
2435.6538,99.698
2436.6179,99.7022
2437.5823,99.7082
2438.5464,99.7172
2439.5107,99.7289
2440.4749,99.7422
2441.4392,99.7557
2442.4033,99.7677
2443.3677,99.7776
2444.3318,99.785
2445.2961,99.7898
2446.2603,99.7921
2447.2246,99.792
2448.1887,99.7901
2449.1531,99.7875
2450.1172,99.7862
2451.0815,99.7878
2452.0457,99.7932
2453.0100,99.8016
2453.9741,99.8111
2454.9385,99.819
2455.9026,99.8229
2456.8669,99.8221
2457.8311,99.8176
2458.7954,99.8122
2459.7595,99.809
2460.7239,99.8105
2461.6880,99.8174
2462.6523,99.8282
2463.6165,99.84
2464.5808,99.8494
2465.5449,99.8544
2466.5093,99.8546
2467.4734,99.8517
2468.4377,99.8485
2469.4019,99.8476
2470.3662,99.8501
2471.3303,99.8557
2472.2947,99.8629
2473.2588,99.8697
2474.2231,99.8746
2475.1873,99.8769
2476.1516,99.8774
2477.1157,99.8776
2478.0801,99.8792
2479.0442,99.8835
2480.0085,99.8904
2480.9727,99.8989
2481.9370,99.9073
2482.9011,99.914
2483.8655,99.9185
2484.8296,99.9209
2485.7939,99.9222
2486.7581,99.9232
2487.7224,99.9247
2488.6865,99.9272
2489.6509,99.9307
2490.6150,99.9346
2491.5793,99.9379
2492.5435,99.9397
2493.5078,99.9401
2494.4719,99.9405
2495.4363,99.9435
2496.4004,99.951
2497.3647,99.9628
2498.3289,99.9761
2499.2932,99.9872
2500.2573,99.9931
2501.2217,99.994
2502.1858,99.9929
2503.1501,99.9938
2504.1143,99.9991
2505.0786,100.008
2506.0427,100.019
2507.0071,100.026
2507.9712,100.028
2508.9355,100.025
2509.8997,100.018
2510.8640,100.01
2511.8281,100.003
2512.7925,100.001
2513.7566,100.005
2514.7209,100.015
2515.6851,100.03
2516.6494,100.047
2517.6135,100.063
2518.5779,100.073
2519.5420,100.077
2520.5063,100.075
2521.4705,100.071
2522.4348,100.067
2523.3989,100.065
2524.3633,100.066
2525.3274,100.069
2526.2917,100.073
2527.2559,100.077
2528.2202,100.081
2529.1843,100.086
2530.1487,100.09
2531.1128,100.093
2532.0771,100.094
2533.0413,100.094
2534.0056,100.093
2534.9697,100.093
2535.9341,100.095
2536.8982,100.101
2537.8625,100.109
2538.8267,100.119
2539.7910,100.129
2540.7551,100.137
2541.7195,100.142
2542.6836,100.145
2543.6479,100.147
2544.6121,100.151
2545.5764,100.157
2546.5405,100.164
2547.5049,100.17
2548.4690,100.174
2549.4333,100.175
2550.3975,100.175
2551.3618,100.177
2552.3259,100.182
2553.2903,100.191
2554.2544,100.203
2555.2188,100.215
2556.1829,100.227
2557.1472,100.236
2558.1113,100.245
2559.0757,100.253
2560.0398,100.262
2561.0042,100.27
2561.9683,100.276
2562.9326,100.279
2563.8967,100.279
2564.8611,100.278
2565.8252,100.28
2566.7896,100.286
2567.7537,100.297
2568.7180,100.308
2569.6821,100.317
2570.6465,100.321
2571.6106,100.32
2572.5750,100.316
2573.5391,100.313
2574.5034,100.313
2575.4675,100.317
2576.4319,100.324
2577.3960,100.334
2578.3604,100.344
2579.3245,100.355
2580.2888,100.364
2581.2529,100.373
2582.2173,100.379
2583.1814,100.382
2584.1458,100.383
2585.1099,100.381
2586.0742,100.379
2587.0383,100.377
2588.0027,100.377
2588.9668,100.378
2589.9312,100.381
2590.8953,100.384
2591.8596,100.388
2592.8237,100.391
2593.7881,100.391
2594.7522,100.388
2595.7166,100.384
2596.6807,100.38
2597.6450,100.379
2598.6091,100.382
2599.5735,100.387
2600.5376,100.395
2601.5020,100.403
2602.4661,100.409
2603.4304,100.414
2604.3945,100.418
2605.3589,100.422
2606.3230,100.428
2607.2874,100.437
2608.2515,100.45
2609.2158,100.463
2610.1799,100.475
2611.1443,100.484
2612.1084,100.489
2613.0728,100.491
2614.0369,100.492
2615.0012,100.493
2615.9653,100.495
2616.9297,100.499
2617.8938,100.504
2618.8582,100.51
2619.8223,100.516
2620.7866,100.523
2621.7507,100.529
2622.7151,100.534
2623.6792,100.538
2624.6436,100.54
2625.6077,100.54
2626.5720,100.539
2627.5361,100.539
2628.5005,100.539
2629.4646,100.541
2630.4290,100.543
2631.3931,100.544
2632.3574,100.545
2633.3215,100.547
2634.2859,100.552
2635.2500,100.56
2636.2144,100.569
2637.1785,100.577
2638.1428,100.585
2639.1069,100.593
2640.0713,100.603
2641.0354,100.615
2641.9998,100.63
2642.9639,100.645
2643.9282,100.656
2644.8923,100.662
2645.8567,100.663
2646.8208,100.662
2647.7852,100.661
2648.7493,100.659
2649.7136,100.658
2650.6777,100.658
2651.6421,100.661
2652.6062,100.668
2653.5706,100.68
2654.5347,100.695
2655.4990,100.712
2656.4631,100.728
2657.4275,100.743
2658.3916,100.756
2659.3560,100.767
2660.3201,100.776
2661.2844,100.784
2662.2485,100.79
2663.2129,100.796
2664.1770,100.803
2665.1414,100.81
2666.1055,100.819
2667.0698,100.829
2668.0339,100.84
2668.9983,100.851
2669.9624,100.862
2670.9268,100.874
2671.8909,100.886
2672.8552,100.899
2673.8193,100.912
2674.7837,100.924
2675.7478,100.936
2676.7122,100.946
2677.6763,100.952
2678.6406,100.954
2679.6047,100.951
2680.5691,100.944
2681.5332,100.937
2682.4976,100.933
2683.4617,100.932
2684.4260,100.934
2685.3901,100.938
2686.3545,100.941
2687.3186,100.943
2688.2830,100.945
2689.2471,100.947
2690.2114,100.95
2691.1755,100.956
2692.1399,100.964
2693.1040,100.973
2694.0684,100.981
2695.0325,100.986
2695.9968,100.989
2696.9609,100.989
2697.9253,100.987
2698.8894,100.987
2699.8538,100.989
2700.8179,100.995
2701.7822,101.003
2702.7463,101.01
2703.7107,101.013
2704.6748,101.012
2705.6392,101.007
2706.6033,100.998
2707.5676,100.987
2708.5317,100.975
2709.4961,100.964
2710.4602,100.956
2711.4246,100.951
2712.3887,100.948
2713.3530,100.944
2714.3171,100.938
2715.2815,100.928
2716.2456,100.914
2717.2100,100.898
2718.1741,100.885
2719.1384,100.877
2720.1025,100.876
2721.0669,100.88
2722.0310,100.885
2722.9954,100.886
2723.9595,100.881
2724.9238,100.869
2725.8879,100.854
2726.8523,100.84
2727.8164,100.828
2728.7808,100.82
2729.7449,100.815
2730.7092,100.811
2731.6733,100.808
2732.6377,100.806
2733.6018,100.807
2734.5662,100.808
2735.5303,100.808
2736.4946,100.805
2737.4587,100.797
2738.4231,100.787
2739.3872,100.777
2740.3516,100.773
2741.3157,100.776
2742.2800,100.787
2743.2441,100.805
2744.2085,100.825
2745.1726,100.844
2746.1370,100.858
2747.1011,100.865
2748.0654,100.864
2749.0295,100.858
2749.9939,100.851
2750.9580,100.845
2751.9224,100.844
2752.8865,100.847
2753.8508,100.851
2754.8149,100.855
2755.7793,100.857
2756.7434,100.854
2757.7078,100.847
2758.6719,100.838
2759.6362,100.828
2760.6003,100.819
2761.5647,100.813
2762.5288,100.807
2763.4932,100.802
2764.4573,100.795
2765.4216,100.787
2766.3857,100.777
2767.3501,100.767
2768.3142,100.759
2769.2786,100.754
2770.2427,100.75
2771.2070,100.745
2772.1711,100.735
2773.1355,100.717
2774.0996,100.693
2775.0640,100.664
2776.0281,100.633
2776.9924,100.603
2777.9565,100.573
2778.9209,100.542
2779.8850,100.508
2780.8494,100.472
2781.8135,100.434
2782.7778,100.398
2783.7419,100.366
2784.7063,100.34
2785.6704,100.318
2786.6348,100.296
2787.5989,100.269
2788.5632,100.232
2789.5273,100.185
2790.4917,100.13
2791.4558,100.07
2792.4202,100.012
2793.3843,99.9606
2794.3486,99.9157
2795.3127,99.875
2796.2771,99.8336
2797.2412,99.7872
2798.2056,99.7326
2799.1697,99.666
2800.1340,99.5949
2801.0981,99.5221
2802.0625,99.45
2803.0266,99.3804
2803.9910,99.3139
2804.9551,99.2499
2805.9194,99.1856
2806.8835,99.1169
2807.8479,99.0394
2808.8120,98.9504
2809.7764,98.8504
2810.7405,98.7424
2811.7048,98.6304
2812.6689,98.5172
2813.6333,98.4032
2814.5974,98.2861
2815.5618,98.1624
2816.5259,98.0285
2817.4902,97.8821
2818.4543,97.7215
2819.4187,97.5462
2820.3828,97.3561
2821.3472,97.1524
2822.3113,96.9361
2823.2756,96.7084
2824.2397,96.4697
2825.2041,96.2189
2826.1682,95.9541
2827.1326,95.673
2828.0967,95.3741
2829.0610,95.0562
2830.0251,94.7192
2830.9895,94.3637
2831.9536,93.9915
2832.9180,93.6058
2833.8821,93.2114
2834.8464,92.8135
2835.8105,92.4171
2836.7749,92.0261
2837.7390,91.6435
2838.7034,91.2714
2839.6675,90.9104
2840.6318,90.5585
2841.5959,90.21
2842.5603,89.856
2843.5244,89.4884
2844.4888,89.1054
2845.4529,88.7165
2846.4172,88.3419
2847.3813,88.0065
2848.3457,87.7298
2849.3098,87.517
2850.2742,87.3563
2851.2383,87.2248
2852.2026,87.0976
2853.1667,86.9578
2854.1311,86.7995
2855.0952,86.6254
2856.0596,86.441
2857.0237,86.2487
2857.9880,86.0464
2858.9521,85.829
2859.9165,85.5917
2860.8806,85.3327
2861.8450,85.0542
2862.8091,84.7622
2863.7734,84.465
2864.7375,84.1716
2865.7019,83.8906
2866.6660,83.6287
2867.6304,83.3897
2868.5945,83.175
2869.5588,82.9838
2870.5229,82.8137
2871.4873,82.6605
2872.4514,82.519
2873.4158,82.3836
2874.3799,82.2493
2875.3442,82.1124
2876.3083,81.9704
2877.2727,81.8211
2878.2368,81.6623
2879.2012,81.4935
2880.1653,81.3184
2881.1296,81.1469
2882.0938,80.9943
2883.0581,80.8762
2884.0222,80.8027
2884.9866,80.7732
2885.9507,80.7751
2886.9150,80.7869
2887.8792,80.7853
2888.8435,80.754
2889.8076,80.6908
2890.7720,80.609
2891.7361,80.53
2892.7004,80.4684
2893.6646,80.4167
2894.6289,80.3407
2895.5930,80.1933
2896.5574,79.9416
2897.5215,79.5932
2898.4858,79.2042
2899.4500,78.8587
2900.4143,78.6313
2901.3784,78.552
2902.3428,78.5944
2903.3069,78.6926
2904.2712,78.7744
2905.2354,78.7906
2906.1997,78.7268
2907.1638,78.5952
2908.1282,78.4191
2909.0923,78.2209
2910.0566,78.017
2911.0208,77.819
2911.9851,77.6347
2912.9492,77.4673
2913.9136,77.3161
2914.8777,77.1777
2915.8420,77.0496
2916.8062,76.9322
2917.7705,76.828
2918.7346,76.7383
2919.6990,76.6617
2920.6631,76.5945
2921.6274,76.5331
2922.5916,76.476
2923.5559,76.4235
2924.5200,76.3767
2925.4844,76.337
2926.4485,76.3059
2927.4128,76.2869
2928.3770,76.2838
2929.3413,76.2992
2930.3054,76.333
2931.2698,76.3828
2932.2339,76.446
2933.1982,76.5232
2934.1624,76.6185
2935.1267,76.7371
2936.0908,76.8815
2937.0552,77.0487
2938.0193,77.2303
2938.9836,77.4164
2939.9478,77.6001
2940.9121,77.7811
2941.8762,77.9643
2942.8406,78.1559
2943.8047,78.3567
2944.7690,78.5586
2945.7332,78.746
2946.6975,78.9012
2947.6616,79.0121
2948.6260,79.0761
2949.5901,79.1006
2950.5544,79.0975
2951.5186,79.0777
2952.4829,79.048
2953.4470,79.0117
2954.4114,78.971
2955.3755,78.9304
2956.3398,78.8964
2957.3040,78.8758
2958.2683,78.8729
2959.2324,78.8867
2960.1968,78.9106
2961.1609,78.9341
2962.1252,78.9457
2963.0894,78.9373
2964.0537,78.9073
2965.0178,78.8614
2965.9822,78.8113
2966.9463,78.7713
2967.9106,78.7563
2968.8748,78.7794
2969.8391,78.8513
2970.8032,78.9789
2971.7676,79.1628
2972.7317,79.3962
2973.6960,79.6649
2974.6602,79.9517
2975.6245,80.2414
2976.5886,80.5256
2977.5530,80.8029
2978.5171,81.0769
2979.4814,81.3505
2980.4456,81.6205
2981.4099,81.8732
2982.3740,82.0861
2983.3384,82.2375
2984.3025,82.3218
2985.2668,82.3654
2986.2310,82.4303
2987.1953,82.5985
2988.1594,82.9382
2989.1238,83.4693
2990.0879,84.1467
2991.0522,84.8753
2992.0164,85.55
2992.9807,86.0997
2993.9448,86.5119
2994.9092,86.8267
2995.8733,87.1062
2996.8376,87.4022
2997.8018,87.737
2998.7661,88.1061
2999.7302,88.4935
3000.6946,88.8865
3001.6587,89.2815
3002.6230,89.6816
3003.5872,90.0904
3004.5515,90.5087
3005.5156,90.9335
3006.4800,91.3602
3007.4441,91.7834
3008.4084,92.198
3009.3726,92.6005
3010.3369,92.99
3011.3010,93.3686
3012.2654,93.7403
3013.2295,94.1076
3014.1938,94.4694
3015.1580,94.8211
3016.1223,95.1569
3017.0864,95.4731
3018.0508,95.7691
3019.0149,96.047
3019.9792,96.3095
3020.9434,96.5586
3021.9077,96.7954
3022.8718,97.0211
3023.8362,97.2374
3024.8003,97.4463
3025.7646,97.6483
3026.7288,97.843
3027.6931,98.0287
3028.6572,98.2047
3029.6216,98.3716
3030.5857,98.5313
3031.5500,98.6848
3032.5142,98.8317
3033.4785,98.9699
3034.4426,99.097
3035.4070,99.2122
3036.3711,99.3164
3037.3354,99.4119
3038.2996,99.5001
3039.2639,99.5806
3040.2280,99.6505
3041.1924,99.7063
3042.1565,99.7462
3043.1208,99.7719
3044.0850,99.7892
3045.0493,99.8056
3046.0134,99.827
3046.9778,99.854
3047.9419,99.881
3048.9063,99.869
3049.8704,99.8339
3050.8347,99.7812
3051.7988,99.7167
3052.7632,99.6499
3053.7273,99.5895
3054.6917,99.5395
3055.6558,99.4989
3056.6201,99.4635
3057.5842,99.4293
3058.5486,99.3937
3059.5127,99.3548
3060.4771,99.3112
3061.4412,99.261
3062.4055,99.2036
3063.3696,99.1408
3064.3340,99.0772
3065.2981,99.0175
3066.2625,98.9646
3067.2266,98.9181
3068.1909,98.875
3069.1550,98.832
3070.1194,98.7872
3071.0835,98.7404
3072.0479,98.6922
3073.0120,98.6423
3073.9763,98.5899
3074.9404,98.534
3075.9048,98.4749
3076.8689,98.4145
3077.8333,98.3552
3078.7974,98.2992
3079.7617,98.2468
3080.7258,98.1964
3081.6902,98.1453
3082.6543,98.0912
3083.6187,98.0327
3084.5828,97.97
3085.5471,97.9044
3086.5112,97.8378
3087.4756,97.7721
3088.4397,97.7081
3089.4041,97.6451
3090.3682,97.581
3091.3325,97.5127
3092.2966,97.4374
3093.2610,97.3535
3094.2251,97.2612
3095.1895,97.1632
3096.1536,97.0632
3097.1179,96.966
3098.0820,96.8756
3099.0464,96.794
3100.0105,96.7207
3100.9749,96.6524
3101.9390,96.5846
3102.9033,96.5135
3103.8674,96.4377
3104.8318,96.3582
3105.7959,96.2772
3106.7603,96.1962
3107.7244,96.1145
3108.6887,96.03
3109.6528,95.9411
3110.6172,95.8478
3111.5813,95.7523
3112.5457,95.6575
3113.5098,95.5657
3114.4741,95.4773
3115.4382,95.3912
3116.4026,95.306
3117.3667,95.2213
3118.3311,95.1375
3119.2952,95.0559
3120.2595,94.9772
3121.2236,94.9009
3122.1880,94.8259
3123.1521,94.7505
3124.1165,94.6739
3125.0806,94.5958
3126.0449,94.5164
3127.0090,94.4354
3127.9734,94.3522
3128.9375,94.2656
3129.9019,94.1757
3130.8660,94.0843
3131.8303,93.9952
3132.7944,93.9119
3133.7588,93.8361
3134.7229,93.7656
3135.6873,93.6955
3136.6514,93.6204
3137.6157,93.5372
3138.5798,93.4471
3139.5442,93.3539
3140.5083,93.2624
3141.4727,93.1749
3142.4368,93.0904
3143.4011,93.0055
3144.3652,92.9169
3145.3296,92.8242
3146.2937,92.7299
3147.2581,92.6385
3148.2222,92.5534
3149.1865,92.4742
3150.1506,92.3967
3151.1150,92.315
3152.0791,92.2247
3153.0435,92.1254
3154.0076,92.021
3154.9719,91.9171
3155.9360,91.8179
3156.9004,91.7248
3157.8645,91.6365
3158.8289,91.5506
3159.7930,91.4656
3160.7573,91.3809
3161.7214,91.2966
3162.6858,91.2122
3163.6499,91.1265
3164.6143,91.0388
3165.5784,90.9498
3166.5427,90.8617
3167.5068,90.777
3168.4712,90.6961
3169.4353,90.6402
3170.3997,90.5573
3171.3638,90.4659
3172.3281,90.3644
3173.2922,90.2551
3174.2566,90.1439
3175.2207,90.038
3176.1851,89.9427
3177.1492,89.8588
3178.1135,89.7829
3179.0776,89.7089
3180.0420,89.6315
3181.0061,89.5485
3181.9705,89.4621
3182.9346,89.3764
3183.8989,89.2949
3184.8630,89.2184
3185.8274,89.144
3186.7915,89.0674
3187.7559,88.9855
3188.7200,88.8986
3189.6843,88.8097
3190.6484,88.7226
3191.6128,88.6395
3192.5769,88.5601
3193.5413,88.4821
3194.5054,88.4034
3195.4697,88.3229
3196.4338,88.241
3197.3982,88.159
3198.3623,88.0774
3199.3267,87.9965
3200.2908,87.9165
3201.2551,87.838
3202.2192,87.7619
3203.1836,87.689
3204.1477,87.6194
3205.1121,87.5521
3206.0762,87.4858
3207.0405,87.4192
3208.0046,87.3512
3208.9690,87.2809
3209.9331,87.2079
3210.8975,87.1324
3211.8616,87.0563
3212.8259,86.9826
3213.7900,86.9144
3214.7544,86.8528
3215.7185,86.7962
3216.6829,86.74
3217.6470,86.6788
3218.6113,86.6093
3219.5754,86.5317
3220.5398,86.4494
3221.5039,86.3676
3222.4683,86.2903
3223.4324,86.2197
3224.3967,86.1566
3225.3608,86.1008
3226.3252,86.0519
3227.2893,86.0088
3228.2537,85.9691
3229.2178,85.9292
3230.1821,85.8857
3231.1462,85.8371
3232.1106,85.785
3233.0747,85.7322
3234.0391,85.6809
3235.0032,85.6304
3235.9675,85.5778
3236.9316,85.5201
3237.8960,85.4569
3238.8601,85.3915
3239.8245,85.3293
3240.7886,85.2746
3241.7529,85.2285
3242.7170,85.1884
3243.6814,85.1503
3244.6455,85.1103
3245.6099,85.0666
3246.5740,85.0186
3247.5383,84.9665
3248.5024,84.9111
3249.4668,84.8537
3250.4309,84.7964
3251.3953,84.742
3252.3594,84.6925
3253.3237,84.648
3254.2878,84.6067
3255.2522,84.5663
3256.2163,84.5259
3257.1807,84.4865
3258.1448,84.4493
3259.1091,84.4147
3260.0732,84.3807
3261.0376,84.3443
3262.0017,84.303
3262.9661,84.2567
3263.9302,84.2069
3264.8945,84.1557
3265.8586,84.1034
3266.8230,84.049
3267.7871,83.9913
3268.7515,83.9314
3269.7156,83.873
3270.6799,83.8213
3271.6440,83.7805
3272.6084,83.7513
3273.5725,83.7308
3274.5369,83.7133
3275.5010,83.694
3276.4653,83.6696
3277.4294,83.6398
3278.3938,83.6061
3279.3579,83.5712
3280.3223,83.5379
3281.2864,83.5084
3282.2507,83.4833
3283.2148,83.4603
3284.1792,83.4343
3285.1433,83.3997
3286.1077,83.3525
3287.0718,83.2941
3288.0361,83.2303
3289.0002,83.1697
3289.9646,83.1195
3290.9287,83.0821
3291.8931,83.0557
3292.8572,83.0357
3293.8215,83.018
3294.7856,83.0004
3295.7500,82.9815
3296.7141,82.9596
3297.6785,82.9322
3298.6426,82.8973
3299.6069,82.855
3300.5710,82.8081
3301.5354,82.7609
3302.4995,82.7173
3303.4639,82.6793
3304.4280,82.6474
3305.3923,82.6216
3306.3564,82.602
3307.3208,82.5885
3308.2849,82.5794
3309.2493,82.5709
3310.2134,82.5588
3311.1777,82.5403
3312.1418,82.5161
3313.1062,82.4895
3314.0703,82.4643
3315.0347,82.4422
3315.9988,82.4207
3316.9631,82.3955
3317.9272,82.3626
3318.8916,82.3217
3319.8557,82.2765
3320.8201,82.2332
3321.7842,82.1977
3322.7485,82.1733
3323.7126,82.1592
3324.6770,82.1515
3325.6411,82.1455
3326.6055,82.1375
3327.5696,82.126
3328.5339,82.1109
3329.4980,82.0927
3330.4624,82.0719
3331.4265,82.049
3332.3909,82.0251
3333.3550,82.002
3334.3193,81.9822
3335.2834,81.9671
3336.2478,81.9559
3337.2119,81.946
3338.1763,81.9343
3339.1404,81.9193
3340.1047,81.9023
3341.0688,81.8859
3342.0332,81.8717
3342.9973,81.8594
3343.9617,81.847
3344.9258,81.8328
3345.8901,81.8175
3346.8542,81.8039
3347.8186,81.7952
3348.7827,81.7927
3349.7471,81.7946
3350.7112,81.7968
3351.6755,81.7952
3352.6396,81.7872
3353.6040,81.7726
3354.5681,81.7532
3355.5325,81.7328
3356.4966,81.716
3357.4609,81.7067
3358.4250,81.7058
3359.3894,81.7101
3360.3535,81.7128
3361.3179,81.7074
3362.2820,81.6914
3363.2463,81.6691
3364.2104,81.6491
3365.1748,81.6404
3366.1389,81.6466
3367.1033,81.6645
3368.0674,81.6869
3369.0317,81.7069
3369.9958,81.7213
3370.9602,81.7303
3371.9243,81.735
3372.8887,81.7351
3373.8528,81.7296
3374.8171,81.719
3375.7813,81.7074
3376.7456,81.7014
3377.7097,81.7065
3378.6741,81.7231
3379.6382,81.7456
3380.6025,81.7652
3381.5667,81.7752
3382.5310,81.7752
3383.4951,81.7707
3384.4595,81.7704
3385.4236,81.7804
3386.3879,81.8015
3387.3521,81.8297
3388.3164,81.8589
3389.2805,81.8841
3390.2449,81.9018
3391.2090,81.9109
3392.1733,81.9132
3393.1375,81.9136
3394.1018,81.9196
3395.0659,81.9387
3396.0303,81.9743
3396.9944,82.0227
3397.9587,82.0736
3398.9229,82.1159
3399.8872,82.1436
3400.8513,82.1588
3401.8157,82.1699
3402.7798,82.1849
3403.7441,82.2071
3404.7083,82.2352
3405.6726,82.2663
3406.6367,82.2995
3407.6011,82.3364
3408.5652,82.378
3409.5295,82.4216
3410.4937,82.4615
3411.4580,82.4924
3412.4221,82.514
3413.3865,82.5314
3414.3506,82.5522
3415.3149,82.5817
3416.2791,82.6199
3417.2434,82.6635
3418.2075,82.709
3419.1719,82.7559
3420.1360,82.8061
3421.1003,82.8613
3422.0645,82.92
3423.0288,82.9789
3423.9929,83.0349
3424.9573,83.0882
3425.9214,83.1429
3426.8857,83.2038
3427.8499,83.2738
3428.8142,83.351
3429.7783,83.4294
3430.7427,83.5019
3431.7068,83.5637
3432.6711,83.6144
3433.6353,83.6575
3434.5996,83.6983
3435.5637,83.741
3436.5281,83.7879
3437.4922,83.8383
3438.4565,83.8894
3439.4207,83.9377
3440.3850,83.9802
3441.3491,84.0169
3442.3135,84.0514
3443.2776,84.0905
3444.2419,84.1423
3445.2061,84.2121
3446.1704,84.2993
3447.1345,84.3969
3448.0989,84.4944
3449.0630,84.5843
3450.0273,84.6647
3450.9915,84.7389
3451.9558,84.811
3452.9199,84.8825
3453.8843,84.9522
3454.8484,85.0172
3455.8127,85.0766
3456.7769,85.1321
3457.7412,85.1878
3458.7053,85.2475
3459.6697,85.3132
3460.6338,85.3845
3461.5981,85.4591
3462.5623,85.5351
3463.5266,85.6115
3464.4907,85.6892
3465.4551,85.7693
3466.4192,85.8516
3467.3835,85.9335
3468.3477,86.0104
3469.3120,86.0782
3470.2761,86.1365
3471.2405,86.1905
3472.2046,86.2491
3473.1689,86.3213
3474.1331,86.4107
3475.0974,86.5129
3476.0615,86.6174
3477.0259,86.7132
3477.9900,86.7947
3478.9543,86.8633
3479.9185,86.9259
3480.8828,86.9904
3481.8469,87.0613
3482.8113,87.1384
3483.7754,87.2194
3484.7397,87.3031
3485.7039,87.3911
3486.6682,87.4854
3487.6323,87.5861
3488.5967,87.6892
3489.5608,87.7881
3490.5251,87.8771
3491.4893,87.9552
3492.4536,88.0264
3493.4177,88.0979
3494.3821,88.1757
3495.3462,88.2601
3496.3105,88.3447
3497.2747,88.4205
3498.2390,88.4828
3499.2031,88.5365
3500.1675,88.5957
3501.1316,88.6783
3502.0959,88.7953
3503.0601,88.9408
3504.0244,89.0933
3504.9885,89.2295
3505.9529,89.3392
3506.9170,89.4274
3507.8813,89.5082
3508.8455,89.5953
3509.8098,89.6949
3510.7739,89.8039
3511.7383,89.9147
3512.7024,90.0226
3513.6667,90.1289
3514.6309,90.2376
3515.5952,90.3496
3516.5593,90.4612
3517.5237,90.565
3518.4878,90.6554
3519.4521,90.7322
3520.4163,90.8007
3521.3806,90.8695
3522.3447,90.9463
3523.3091,91.0348
3524.2732,91.1357
3525.2375,91.2492
3526.2017,91.3766
3527.1660,91.5176
3528.1301,91.6668
3529.0945,91.8126
3530.0586,91.9428
3531.0229,92.0532
3531.9871,92.1514
3532.9514,92.2522
3533.9155,92.3701
3534.8799,92.5106
3535.8440,92.6657
3536.8083,92.8162
3537.7725,92.9422
3538.7368,93.0344
3539.7009,93.0982
3540.6653,93.1507
3541.6294,93.2135
3542.5938,93.3065
3543.5579,93.4425
3544.5222,93.6202
3545.4863,93.8197
3546.4507,94.0104
3547.4148,94.1704
3548.3792,94.299
3549.3433,94.4127
3550.3076,94.5324
3551.2717,94.6723
3552.2361,94.8338
3553.2002,95.0055
3554.1646,95.1717
3555.1287,95.3228
3556.0930,95.4587
3557.0571,95.5839
3558.0215,95.7005
3558.9856,95.8052
3559.9500,95.8916
3560.9141,95.9552
3561.8784,95.9982
3562.8425,96.0309
3563.8069,96.0725
3564.7710,96.1549
3565.7354,96.3193
3566.6995,96.5784
3567.6638,96.8762
3568.6279,97.1265
3569.5923,97.2917
3570.5564,97.3927
3571.5208,97.4676
3572.4849,97.5415
3573.4492,97.6203
3574.4133,97.6998
3575.3777,97.7755
3576.3418,97.8493
3577.3062,97.9272
3578.2703,98.0127
3579.2346,98.1014
3580.1987,98.1831
3581.1631,98.2489
3582.1272,98.2977
3583.0916,98.3354
3584.0557,98.3696
3585.0200,98.4101
3585.9841,98.4729
3586.9485,98.5693
3587.9126,98.68
3588.8770,98.7631
3589.8411,98.7981
3590.8054,98.7993
3591.7695,98.7929
3592.7339,98.7963
3593.6980,98.8147
3594.6624,98.8432
3595.6265,98.8711
3596.5908,98.8917
3597.5549,98.9107
3598.5193,98.9443
3599.4834,99.007
3600.4478,99.0976
3601.4119,99.1978
3602.3762,99.2858
3603.3403,99.3516
3604.3047,99.3989
3605.2688,99.4384
3606.2332,99.4815
3607.1973,99.5364
3608.1616,99.6008
3609.1257,99.6595
3610.0901,99.6952
3611.0542,99.7016
3612.0186,99.6854
3612.9829,99.6585
3613.9470,99.6315
3614.9114,99.6115
3615.8755,99.6034
3616.8398,99.6135
3617.8040,99.6478
3618.7683,99.6961
3619.7324,99.7362
3620.6968,99.7328
3621.6609,99.6738
3622.6252,99.5872
3623.5894,99.5176
3624.5537,99.494
3625.5178,99.5154
3626.4822,99.5596
3627.4463,99.6113
3628.4106,99.6708
3629.3748,99.7154
3630.3391,99.7024
3631.3032,99.6315
3632.2676,99.5452
3633.2317,99.4826
3634.1960,99.4549
3635.1602,99.4502
3636.1245,99.4478
3637.0886,99.431
3638.0530,99.3914
3639.0171,99.3268
3639.9814,99.2371
3640.9456,99.1267
3641.9099,99.0058
3642.8740,98.8897
3643.8384,98.789
3644.8025,98.697
3645.7668,98.5837
3646.7310,98.4216
3647.6953,98.2576
3648.6594,98.2211
3649.6238,98.3267
3650.5879,98.4181
3651.5522,98.4029
3652.5164,98.3108
3653.4807,98.1949
3654.4448,98.0785
3655.4092,97.9613
3656.3733,97.8403
3657.3376,97.7208
3658.3018,97.6152
3659.2661,97.5385
3660.2302,97.5011
3661.1946,97.4995
3662.1587,97.5173
3663.1230,97.5351
3664.0872,97.5439
3665.0515,97.5455
3666.0156,97.5419
3666.9800,97.5273
3667.9441,97.4979
3668.9084,97.4676
3669.8726,97.454
3670.8369,97.4494
3671.8010,97.4323
3672.7654,97.3947
3673.7295,97.3536
3674.6938,97.3594
3675.6580,97.4643
3676.6223,97.6425
3677.5864,97.805
3678.5508,97.8983
3679.5149,97.9262
3680.4792,97.9084
3681.4434,97.8608
3682.4077,97.7994
3683.3718,97.7459
3684.3362,97.7199
3685.3003,97.7237
3686.2646,97.7364
3687.2288,97.7323
3688.1931,97.7212
3689.1572,97.753
3690.1216,97.8477
3691.0857,97.9671
3692.0500,98.0761
3693.0142,98.1726
3693.9785,98.2682
3694.9426,98.3699
3695.9070,98.4786
3696.8711,98.5942
3697.8354,98.7181
3698.7996,98.8528
3699.7639,98.9991
3700.7280,99.1524
3701.6924,99.2978
3702.6565,99.4137
3703.6208,99.4865
3704.5850,99.5232
3705.5493,99.5434
3706.5134,99.5621
3707.4778,99.5811
3708.4419,99.6006
3709.4063,99.6457
3710.3704,99.7671
3711.3347,99.9711
3712.2988,100.176
3713.2632,100.297
3714.2273,100.322
3715.1917,100.288
3716.1558,100.234
3717.1201,100.175
3718.0842,100.113
3719.0486,100.041
3720.0127,99.9618
3720.9771,99.8867
3721.9412,99.8314
3722.9055,99.8082
3723.8696,99.8192
3724.8340,99.8527
3725.7981,99.8866
3726.7625,99.9065
3727.7266,99.932
3728.6909,99.9466
3729.6550,99.9579
3730.6194,99.9612
3731.5835,99.9439
3732.5479,99.9063
3733.5120,99.8869
3734.4763,99.9444
3735.4404,100.075
3736.4048,100.193
3737.3689,100.235
3738.3333,100.228
3739.2974,100.242
3740.2617,100.33
3741.2258,100.493
3742.1902,100.673
3743.1543,100.785
3744.1187,100.769
3745.0828,100.631
3746.0471,100.432
3747.0112,100.246
3747.9756,100.122
3748.9397,100.085
3749.9041,100.147
3750.8682,100.283
3751.8325,100.395
3752.7966,100.398
3753.7610,100.304
3754.7251,100.183
3755.6895,100.088
3756.6536,100.041
3757.6179,100.044
3758.5820,100.086
3759.5464,100.144
3760.5105,100.192
3761.4749,100.218
3762.4390,100.23
3763.4033,100.238
3764.3674,100.247
3765.3318,100.257
3766.2959,100.263
3767.2603,100.266
3768.2244,100.271
3769.1887,100.283
3770.1528,100.302
3771.1172,100.318
3772.0813,100.319
3773.0457,100.307
3774.0098,100.289
3774.9741,100.275
3775.9382,100.264
3776.9026,100.252
3777.8667,100.237
3778.8311,100.221
3779.7952,100.203
3780.7595,100.178
3781.7236,100.15
3782.6880,100.125
3783.6521,100.117
3784.6165,100.132
3785.5806,100.169
3786.5449,100.217
3787.5090,100.262
3788.4734,100.292
3789.4375,100.304
3790.4019,100.302
3791.3660,100.29
3792.3303,100.266
3793.2944,100.226
3794.2588,100.169
3795.2229,100.108
3796.1873,100.059
3797.1514,100.037
3798.1157,100.042
3799.0798,100.057
3800.0442,100.068
3801.0083,100.071
3801.9727,100.067
3802.9368,100.065
3803.9011,100.078
3804.8652,100.122
3805.8296,100.195
3806.7937,100.271
3807.7581,100.311
3808.7222,100.294
3809.6865,100.242
3810.6506,100.2
3811.6150,100.204
3812.5791,100.25
3813.5435,100.3
3814.5076,100.312
3815.4719,100.267
3816.4360,100.18
3817.4004,100.085
3818.3645,100.012
3819.3289,99.9824
3820.2930,99.9991
3821.2573,100.037
3822.2214,100.053
3823.1858,100.027
3824.1499,99.9821
3825.1143,99.9527
3826.0784,99.9598
3827.0427,99.9996
3828.0068,100.052
3828.9712,100.093
3829.9353,100.111
3830.8997,100.108
3831.8638,100.096
3832.8281,100.084
3833.7922,100.071
3834.7566,100.046
3835.7207,99.9945
3836.6851,99.9183
3837.6492,99.846
3838.6135,99.8143
3839.5776,99.8369
3840.5420,99.9
3841.5061,99.9821
3842.4705,100.062
3843.4346,100.117
3844.3989,100.126
3845.3630,100.084
3846.3274,100.012
3847.2915,99.9516
3848.2559,99.9463
3849.2200,100.018
3850.1843,100.153
3851.1484,100.307
3852.1128,100.451
3853.0769,100.582
3854.0413,100.638
3855.0054,100.547
3855.9697,100.351
3856.9338,100.158
3857.8982,100.036
3858.8623,99.9961
3859.8267,100.003
3860.7908,100.01
3861.7551,99.9899
3862.7192,99.9597
3863.6836,99.9557
3864.6477,99.9949
3865.6121,100.063
3866.5762,100.131
3867.5405,100.173
3868.5046,100.176
3869.4690,100.146
3870.4331,100.107
3871.3975,100.081
3872.3616,100.07
3873.3259,100.069
3874.2900,100.071
3875.2544,100.081
3876.2185,100.099
3877.1829,100.122
3878.1470,100.134
3879.1113,100.129
3880.0754,100.112
3881.0398,100.104
3882.0039,100.122
3882.9683,100.17
3883.9324,100.234
3884.8967,100.286
3885.8608,100.299
3886.8252,100.267
3887.7893,100.208
3888.7537,100.148
3889.7178,100.107
3890.6821,100.095
3891.6462,100.109
3892.6106,100.13
3893.5747,100.14
3894.5391,100.139
3895.5032,100.142
3896.4675,100.154
3897.4316,100.166
3898.3960,100.165
3899.3601,100.15
3900.3245,100.13
3901.2886,100.116
3902.2529,100.116
3903.2170,100.132
3904.1814,100.16
3905.1455,100.183
3906.1099,100.195
3907.0740,100.195
3908.0383,100.192
3909.0024,100.187
3909.9668,100.179
3910.9309,100.166
3911.8953,100.15
3912.8594,100.137
3913.8237,100.135
3914.7878,100.145
3915.7522,100.164
3916.7163,100.185
3917.6807,100.2
3918.6448,100.2
3919.6091,100.182
3920.5732,100.15
3921.5376,100.116
3922.5017,100.089
3923.4661,100.075
3924.4302,100.07
3925.3945,100.066
3926.3586,100.055
3927.3230,100.036
3928.2871,100.017
3929.2515,100.007
3930.2156,100.018
3931.1799,100.055
3932.1440,100.11
3933.1084,100.165
3934.0725,100.201
3935.0369,100.212
3936.0010,100.202
3936.9653,100.179
3937.9294,100.147
3938.8938,100.109
3939.8579,100.067
3940.8223,100.031
3941.7864,100.013
3942.7507,100.019
3943.7148,100.043
3944.6792,100.074
3945.6433,100.098
3946.6077,100.104
3947.5718,100.092
3948.5361,100.068
3949.5002,100.045
3950.4646,100.031
3951.4287,100.032
3952.3931,100.045
3953.3572,100.068
3954.3215,100.092
3955.2856,100.111
3956.2500,100.117
3957.2141,100.11
3958.1785,100.09
3959.1426,100.065
3960.1069,100.044
3961.0710,100.035
3962.0354,100.04
3962.9995,100.059
3963.9639,100.085
3964.9280,100.111
3965.8923,100.129
3966.8564,100.131
3967.8208,100.116
3968.7849,100.085
3969.7493,100.043
3970.7134,100.002
3971.6777,99.9727
3972.6418,99.9632
3973.6062,99.9744
3974.5703,99.9998
3975.5347,100.029
3976.4988,100.051
3977.4631,100.063
3978.4272,100.065
3979.3916,100.061
3980.3557,100.055
3981.3201,100.047
3982.2842,100.038
3983.2485,100.027
3984.2126,100.017
3985.1770,100.012
3986.1411,100.015
3987.1055,100.025
3988.0696,100.036
3989.0339,100.038
3989.9980,100.027
3990.9624,100.003
3991.9265,99.9753
3992.8909,99.9544
3993.8550,99.9482
3994.8193,99.9566
3995.7834,99.972
3996.7478,99.9843
3997.7119,99.9871
3998.6763,99.9807
3999.6404,99.9708
4000.6047,99.8445

##### Extended Information
[Comments]
Sample name
Comment
User
Division
Company,HANKYONG

[Detailed Information]
Creation date,4/24/2024 10:41 AM

Data array type,Linear data array
Horizontal axis,Wavenumber [cm-1]
Vertical axis,%T
Start,649.893 cm-1
End,4000.6 cm-1
Data interval,0.964233 cm-1
Data points,3476    

[Measurement Information]
Model Name,FT/IR-4700typeA
Serial Number,D056761788

Accessory,ATR PRO ONE
Accessory S/N,C174761809
Incident angle,45 deg

Measurement Date,4/24/2024 10:40 AM

Light Source,Standard
Detector,TGS
Accumulation,32
Resolution,4 cm-1
Zero Filling,On
Apodization,Cosine
Gain,Auto (4)
Aperture,Auto (7.1 mm)
Scanning Speed,Auto (2 mm/sec)
Filter,Auto (30000 Hz)

