TITLE,
DATA TYPE,INFRARED SPECTRUM
ORIGIN,JASCO
OWNER,
DATE,24/04/24
TIME,11:19:17
SPECTROMETER/DATA SYSTEM,
LOCALE,1033
RESOLUTION,
DELTAX,0.964233
XUNITS,1/CM
YUNITS,TRANSMITTANCE
FIRSTX,  649.8934
LASTX, 4000.6047
NPOINTS,    3476
FIRSTY,   101.13613
MAXY,   101.85874
MINY,    56.26141
XYDATA
649.8934,101.136
650.8576,101.168
651.8218,101.241
652.7861,101.324
653.7503,101.402
654.7145,101.47
655.6788,101.531
656.6430,101.583
657.6072,101.622
658.5715,101.66
659.5357,101.722
660.4999,101.683
661.4642,101.661
662.4284,101.639
663.3926,101.546
664.3569,101.307
665.3211,100.854
666.2853,100.157
667.2496,99.3216
668.2138,98.6853
669.1780,98.5872
670.1423,98.9357
671.1065,99.3876
672.0707,99.7301
673.0350,99.912
673.9992,99.9539
674.9634,99.9023
675.9277,99.8157
676.8919,99.7499
677.8561,99.7393
678.8204,99.7879
679.7846,99.8786
680.7488,99.9892
681.7131,100.107
682.6773,100.236
683.6415,100.388
684.6058,100.573
685.5700,100.78
686.5342,100.976
687.4985,101.116
688.4627,101.165
689.4269,101.113
690.3912,100.98
691.3554,100.812
692.3196,100.68
693.2839,100.668
694.2481,100.817
695.2123,101.085
696.1766,101.388
697.1408,101.649
698.1050,101.817
699.0693,101.859
700.0335,101.774
700.9977,101.59
701.9620,101.358
702.9262,101.137
703.8904,100.97
704.8547,100.88
705.8189,100.86
706.7831,100.881
707.7474,100.909
708.7116,100.912
709.6758,100.869
710.6401,100.773
711.6043,100.621
712.5685,100.413
713.5328,100.15
714.4970,99.839
715.4612,99.6461
716.4255,99.2844
717.3897,98.9599
718.3539,98.7207
719.3182,98.6074
720.2824,98.6348
721.2466,98.7821
722.2109,99.0159
723.1751,99.278
724.1393,99.5029
725.1036,99.6581
726.0678,99.7293
727.0320,99.7209
727.9963,99.6545
728.9605,99.5622
729.9247,99.4749
730.8890,99.4082
731.8532,99.3556
732.8174,99.2913
733.7817,99.1819
734.7459,99.0005
735.7101,98.7355
736.6744,98.3913
737.6386,97.9814
738.6028,97.5223
739.5671,97.0289
740.5313,96.5162
741.4955,96.0015
742.4598,95.5075
743.4240,95.061
744.3882,94.6896
745.3525,94.4164
746.3167,94.2545
747.2809,94.2033
748.2452,94.2479
749.2094,94.3614
750.1736,94.5115
751.1379,94.6677
752.1021,94.8087
753.0663,94.9265
754.0306,95.0249
754.9948,95.1137
755.9590,95.2011
756.9233,95.2865
757.8875,95.3597
758.8517,95.4053
759.8160,95.4108
760.7802,95.3742
761.7444,95.3078
762.7087,95.2346
763.6729,95.181
764.6371,95.1699
765.6014,95.2162
766.5656,95.3262
767.5298,95.5
768.4941,95.7325
769.4583,96.0128
770.4225,96.3231
771.3868,96.6376
772.3510,96.9262
773.3152,97.159
774.2795,97.3136
775.2437,97.3804
776.2079,97.3643
777.1722,97.2823
778.1364,97.1565
779.1006,97.0069
780.0649,96.8448
781.0291,96.6725
781.9933,96.4873
782.9576,96.2887
783.9218,96.0818
784.8860,95.8766
785.8503,95.6826
786.8145,95.5031
787.7787,95.3346
788.7430,95.1721
789.7072,95.015
790.6714,94.8703
791.6357,94.7481
792.5999,94.6534
793.5641,94.5807
794.5284,94.5147
795.4926,94.4381
796.4568,94.3407
797.4211,94.2242
798.3853,94.0981
799.3495,93.9721
800.3138,93.8486
801.2780,93.7205
802.2422,93.5758
803.2065,93.4032
804.1707,93.1975
805.1349,92.9602
806.0992,92.6985
807.0634,92.4223
808.0276,92.1425
808.9919,91.8693
809.9561,91.6117
810.9203,91.3762
811.8846,91.1671
812.8488,90.9876
813.8130,90.8411
814.7773,90.7321
815.7415,90.6654
816.7057,90.6431
817.6700,90.6619
818.6342,90.7122
819.5984,90.7811
820.5627,90.8565
821.5269,90.931
822.4911,91.0036
823.4554,91.0779
824.4196,91.1589
825.3839,91.2503
826.3481,91.3525
827.3123,91.4615
828.2766,91.5685
829.2408,91.6594
830.2050,91.7173
831.1693,91.7267
832.1335,91.679
833.0977,91.5754
834.0620,91.4266
835.0262,91.2469
835.9904,91.0485
836.9547,90.8378
837.9189,90.6162
838.8831,90.3832
839.8474,90.1398
840.8116,89.8885
841.7758,89.6316
842.7401,89.3703
843.7043,89.105
844.6685,88.8381
845.6328,88.5757
846.5970,88.3261
847.5612,88.0973
848.5255,87.8945
849.4897,87.7195
850.4539,87.5737
851.4182,87.4591
852.3824,87.3789
853.3466,87.3333
854.3109,87.3175
855.2751,87.3208
856.2393,87.3314
857.2036,87.3413
858.1678,87.3499
859.1320,87.3638
860.0963,87.3927
861.0605,87.4448
862.0247,87.5239
862.9890,87.6296
863.9532,87.7589
864.9174,87.9077
865.8817,88.0717
866.8459,88.2474
867.8101,88.4329
868.7744,88.6284
869.7386,88.8351
870.7028,89.0517
871.6671,89.2702
872.6313,89.4739
873.5955,89.6401
874.5598,89.7484
875.5240,89.79
876.4882,89.7731
877.4525,89.7212
878.4167,89.6634
879.3809,89.623
880.3452,89.6091
881.3094,89.6173
882.2736,89.6357
883.2379,89.6543
884.2021,89.6697
885.1663,89.6851
886.1306,89.7054
887.0948,89.7344
888.0590,89.7744
889.0233,89.8285
889.9875,89.9028
890.9517,90.004
891.9160,90.1365
892.8802,90.298
893.8444,90.4799
894.8087,90.6699
895.7729,90.8564
896.7371,91.0311
897.7014,91.1892
898.6656,91.3277
899.6298,91.4449
900.5941,91.5396
901.5583,91.6115
902.5225,91.6615
903.4868,91.6909
904.4510,91.702
905.4152,91.6971
906.3795,91.6788
907.3437,91.648
908.3079,91.6031
909.2722,91.5408
910.2364,91.4585
911.2006,91.3597
912.1649,91.2558
913.1291,91.164
914.0933,91.1008
915.0576,91.0753
916.0218,91.0865
916.9860,91.1261
917.9503,91.1861
918.9145,91.2651
919.8787,91.3684
920.8430,91.5041
921.8072,91.6768
922.7714,91.8839
923.7357,92.1166
924.6999,92.3654
925.6641,92.6238
926.6284,92.8906
927.5926,93.1689
928.5568,93.4627
929.5211,93.7764
930.4853,94.1145
931.4495,94.4832
932.4138,94.89
933.3780,95.3417
934.3422,95.8404
935.3065,96.3796
936.2707,96.9434
937.2349,97.509
938.1992,98.0516
939.1634,98.5507
940.1276,98.9948
941.0919,99.3818
942.0561,99.716
943.0203,100.003
943.9846,100.245
944.9488,100.438
945.9130,100.577
946.8773,100.658
947.8415,100.682
948.8057,100.659
949.7700,100.601
950.7342,100.521
951.6984,100.424
952.6627,100.337
953.6269,100.318
954.5911,100.266
955.5554,100.177
956.5196,100.05
957.4838,99.8843
958.4481,99.6813
959.4123,99.4396
960.3765,99.1577
961.3408,98.8367
962.3050,98.4825
963.2692,98.1076
964.2335,97.7291
965.1977,97.3645
966.1619,97.0268
967.1262,96.721
968.0904,96.4443
969.0546,96.1895
970.0189,95.9494
970.9831,95.7202
971.9473,95.5015
972.9116,95.2942
973.8758,95.0983
974.8400,94.911
975.8043,94.7274
976.7685,94.5405
977.7327,94.3421
978.6970,94.1225
979.6612,93.8714
980.6254,93.5792
981.5897,93.2394
982.5539,92.8513
983.5181,92.4206
984.4824,91.9594
985.4466,91.4828
986.4108,91.0066
987.3751,90.545
988.3393,90.1101
989.3035,89.7119
990.2678,89.3592
991.2320,89.0582
992.1962,88.8109
993.1605,88.6136
994.1247,88.4571
995.0889,88.3298
996.0532,88.2207
997.0174,88.1221
997.9816,88.028
998.9459,87.9311
999.9101,87.8201
1000.8743,87.6796
1001.8386,87.493
1002.8028,87.2456
1003.7670,86.9267
1004.7313,86.529
1005.6955,86.0471
1006.6597,85.4764
1007.6240,84.8135
1008.5882,84.0573
1009.5524,83.209
1010.5167,82.2724
1011.4809,81.2537
1012.4451,80.1617
1013.4094,79.0071
1014.3736,77.8003
1015.3378,76.5498
1016.3021,75.2612
1017.2663,73.9398
1018.2305,72.5939
1019.1948,71.2348
1020.1590,69.8724
1021.1232,68.5092
1022.0875,67.1389
1023.0517,65.7549
1024.0160,64.3653
1024.9802,63.0035
1025.9445,61.7253
1026.9087,60.5906
1027.8729,59.6378
1028.8372,58.8683
1029.8014,58.2492
1030.7656,57.7337
1031.7299,57.2853
1032.6941,56.8941
1033.6583,56.5751
1034.6226,56.3562
1035.5868,56.2614
1036.5510,56.2993
1037.5153,56.4599
1038.4795,56.7176
1039.4437,57.0383
1040.4080,57.3877
1041.3722,57.7392
1042.3364,58.0791
1043.3007,58.4084
1044.2649,58.7385
1045.2291,59.0856
1046.1934,59.4643
1047.1576,59.8856
1048.1218,60.3568
1049.0861,60.8835
1050.0503,61.4692
1051.0145,62.113
1051.9788,62.8081
1052.9430,63.544
1053.9072,64.3125
1054.8715,65.1151
1055.8357,65.9646
1056.7999,66.8764
1057.7642,67.8509
1058.7284,68.8552
1059.6926,69.819
1060.6569,70.652
1061.6211,71.2813
1062.5853,71.6882
1063.5496,71.9254
1064.5138,72.098
1065.4780,72.3165
1066.4423,72.6439
1067.4065,73.0674
1068.3707,73.5084
1069.3350,73.8661
1070.2992,74.0651
1071.2634,74.0847
1072.2277,73.9538
1073.1919,73.7248
1074.1561,73.4441
1075.1204,73.137
1076.0846,72.8116
1077.0488,72.4715
1078.0131,72.1262
1078.9773,71.7921
1079.9415,71.4862
1080.9058,71.2187
1081.8700,70.9906
1082.8342,70.7956
1083.7985,70.6252
1084.7627,70.4731
1085.7269,70.3391
1086.6912,70.2288
1087.6554,70.152
1088.6196,70.1166
1089.5839,70.1215
1090.5481,70.153
1091.5123,70.1865
1092.4766,70.1955
1093.4408,70.163
1094.4050,70.0889
1095.3693,69.9885
1096.3335,69.8848
1097.2977,69.7978
1098.2620,69.7382
1099.2262,69.7073
1100.1904,69.7021
1101.1547,69.7208
1102.1189,69.7659
1103.0831,69.8442
1104.0474,69.9651
1105.0116,70.1378
1105.9758,70.3704
1106.9401,70.6691
1107.9043,71.0387
1108.8685,71.4837
1109.8328,72.009
1110.7970,72.62
1111.7612,73.3218
1112.7255,74.1155
1113.6897,74.9965
1114.6539,75.9541
1115.6182,76.9744
1116.5824,78.0453
1117.5466,79.1608
1118.5109,80.322
1119.4751,81.5351
1120.4393,82.8058
1121.4036,84.1357
1122.3678,85.5191
1123.3320,86.9428
1124.2963,88.388
1125.2605,89.8322
1126.2247,91.2517
1127.1890,92.6228
1128.1532,93.9229
1129.1174,95.1315
1130.0817,96.2299
1131.0459,97.2018
1132.0101,98.0339
1132.9744,98.7173
1133.9386,99.2483
1134.9028,99.6284
1135.8671,99.8626
1136.8313,99.9566
1137.7955,99.9156
1138.7598,99.7201
1139.7240,99.3187
1140.6882,98.805
1141.6525,98.1949
1142.6167,97.5082
1143.5809,96.7668
1144.5452,95.9927
1145.5094,95.2088
1146.4736,94.4388
1147.4379,93.7079
1148.4021,93.0408
1149.3663,92.4587
1150.3306,91.9769
1151.2948,91.6021
1152.2590,91.3319
1153.2233,91.1539
1154.1875,91.0463
1155.1517,90.9798
1156.1160,90.922
1157.0802,90.8426
1158.0444,90.7183
1159.0087,90.5347
1159.9729,90.2843
1160.9371,89.9642
1161.9014,89.5736
1162.8656,89.1146
1163.8298,88.5944
1164.7941,88.0255
1165.7583,87.4243
1166.7225,86.8071
1167.6868,86.1867
1168.6510,85.5711
1169.6152,84.9651
1170.5795,84.3716
1171.5437,83.7927
1172.5079,83.2285
1173.4722,82.6765
1174.4364,82.1314
1175.4006,81.5872
1176.3649,81.0396
1177.3291,80.487
1178.2933,79.9296
1179.2576,79.3675
1180.2218,78.8
1181.1860,78.2264
1182.1503,77.6481
1183.1145,77.0699
1184.0787,76.4992
1185.0430,75.9433
1186.0072,75.4056
1186.9714,74.8849
1187.9357,74.3763
1188.8999,73.8739
1189.8641,73.374
1190.8284,72.876
1191.7926,72.3824
1192.7568,71.8967
1193.7211,71.423
1194.6853,70.9656
1195.6495,70.5279
1196.6138,70.1123
1197.5780,69.7196
1198.5422,69.3489
1199.5065,69.0312
1200.4707,68.6999
1201.4349,68.394
1202.3992,68.1184
1203.3634,67.8778
1204.3276,67.6745
1205.2919,67.5076
1206.2561,67.3745
1207.2203,67.2727
1208.1846,67.2016
1209.1488,67.162
1210.1130,67.1556
1211.0773,67.1834
1212.0415,67.245
1213.0057,67.3386
1213.9700,67.4621
1214.9342,67.6139
1215.8984,67.7929
1216.8627,67.9981
1217.8269,68.2275
1218.7911,68.477
1219.7554,68.7405
1220.7196,69.0114
1221.6838,69.2834
1222.6481,69.5516
1223.6123,69.8117
1224.5765,70.0597
1225.5408,70.2909
1226.5050,70.5007
1227.4692,70.6851
1228.4335,70.8412
1229.3977,70.9679
1230.3619,71.0676
1231.3262,71.1471
1232.2904,71.2183
1233.2546,71.2956
1234.2189,71.3903
1235.1831,71.5048
1236.1473,71.6307
1237.1116,71.7548
1238.0758,71.8695
1239.0400,71.9814
1240.0043,72.1117
1240.9685,72.2843
1241.9327,72.5098
1242.8970,72.7748
1243.8612,73.0439
1244.8254,73.2759
1245.7897,73.4421
1246.7539,73.5375
1247.7181,73.5775
1248.6824,73.5847
1249.6466,73.5746
1250.6108,73.5492
1251.5751,73.4996
1252.5393,73.4139
1253.5035,73.2845
1254.4678,73.1119
1255.4320,72.9037
1256.3962,72.6729
1257.3605,72.4359
1258.3247,72.2119
1259.2889,72.0204
1260.2532,71.878
1261.2174,71.794
1262.1816,71.7685
1263.1459,71.7939
1264.1101,71.8577
1265.0743,71.9469
1266.0386,72.0503
1267.0028,72.1607
1267.9670,72.2749
1268.9313,72.394
1269.8955,72.5217
1270.8597,72.6632
1271.8240,72.8236
1272.7882,73.007
1273.7524,73.2164
1274.7167,73.453
1275.6809,73.7164
1276.6451,74.0042
1277.6094,74.3114
1278.5736,74.6312
1279.5378,74.9556
1280.5021,75.2767
1281.4663,75.588
1282.4305,75.8854
1283.3948,76.1678
1284.3590,76.4376
1285.3232,76.6999
1286.2875,76.9615
1287.2517,77.2285
1288.2159,77.5044
1289.1802,77.7889
1290.1444,78.0779
1291.1086,78.3667
1292.0729,78.6522
1293.0371,78.9344
1294.0013,79.2159
1294.9656,79.4992
1295.9298,79.7844
1296.8940,80.0679
1297.8583,80.3433
1298.8225,80.6036
1299.7867,80.843
1300.7510,81.0589
1301.7152,81.2501
1302.6794,81.4174
1303.6437,81.5627
1304.6079,81.6879
1305.5721,81.7944
1306.5364,81.8828
1307.5006,81.9531
1308.4648,82.0057
1309.4291,82.0427
1310.3933,82.0686
1311.3575,82.0901
1312.3218,82.1131
1313.2860,82.1413
1314.2502,82.1744
1315.2145,82.2107
1316.1787,82.2492
1317.1429,82.2907
1318.1072,82.3367
1319.0714,82.3861
1320.0356,82.434
1320.9999,82.4738
1321.9641,82.5005
1322.9283,82.5139
1323.8926,82.5182
1324.8568,82.5196
1325.8210,82.5238
1326.7853,82.5349
1327.7495,82.556
1328.7137,82.5897
1329.6780,82.6395
1330.6422,82.7069
1331.6064,82.7889
1332.5707,82.8762
1333.5349,82.9555
1334.4991,83.0146
1335.4634,83.0495
1336.4276,83.0698
1337.3918,83.1002
1338.3561,83.1722
1339.3203,83.3019
1340.2845,83.4708
1341.2488,83.6358
1342.2130,83.7587
1343.1772,83.824
1344.1415,83.8352
1345.1057,83.8044
1346.0699,83.7448
1347.0342,83.6684
1347.9984,83.5841
1348.9626,83.4956
1349.9269,83.4022
1350.8911,83.3015
1351.8553,83.1931
1352.8196,83.0824
1353.7838,82.9791
1354.7480,82.8927
1355.7123,82.8249
1356.6765,82.7684
1357.6407,82.7115
1358.6050,82.6483
1359.5692,82.5851
1360.5334,82.5441
1361.4977,82.5557
1362.4619,82.635
1363.4261,82.7613
1364.3904,82.8933
1365.3546,83.0037
1366.3188,83.0906
1367.2831,83.1637
1368.2473,83.2284
1369.2115,83.2794
1370.1758,83.3074
1371.1400,83.3092
1372.1042,83.296
1373.0685,83.2924
1374.0327,83.325
1374.9969,83.4013
1375.9612,83.5045
1376.9254,83.6138
1377.8896,83.7261
1378.8539,83.8553
1379.8181,84.0155
1380.7823,84.2056
1381.7466,84.4097
1382.7108,84.6118
1383.6750,84.8132
1384.6393,85.0353
1385.6035,85.3048
1386.5677,85.6215
1387.5320,85.9278
1388.4962,86.1299
1389.4604,86.1669
1390.4247,86.0472
1391.3889,85.8271
1392.3531,85.581
1393.3174,85.3881
1394.2816,85.3178
1395.2458,85.3944
1396.2101,85.5679
1397.1743,85.738
1398.1385,85.8176
1399.1028,85.7755
1400.0670,85.6288
1401.0313,85.4147
1401.9955,85.1677
1402.9597,84.9137
1403.9240,84.6736
1404.8882,84.4656
1405.8524,84.2994
1406.8167,84.1702
1407.7809,84.0649
1408.7451,83.9726
1409.7094,83.8879
1410.6736,83.8058
1411.6378,83.7174
1412.6021,83.6134
1413.5663,83.4906
1414.5305,83.3528
1415.4948,83.2036
1416.4590,83.0411
1417.4232,82.8654
1418.3875,82.6842
1419.3517,82.4938
1420.3159,82.2698
1421.2802,81.9979
1422.2444,81.6923
1423.2086,81.3805
1424.1729,81.0856
1425.1371,80.8192
1426.1013,80.5831
1427.0656,80.3735
1428.0298,80.1867
1428.9940,80.0229
1429.9583,79.8853
1430.9225,79.7746
1431.8867,79.6874
1432.8510,79.6171
1433.8152,79.5504
1434.7794,79.4658
1435.7437,79.3428
1436.7079,79.1724
1437.6721,78.95
1438.6364,78.6735
1439.6006,78.3575
1440.5648,78.0294
1441.5291,77.7107
1442.4933,77.4091
1443.4575,77.1196
1444.4218,76.8318
1445.3860,76.5351
1446.3502,76.2242
1447.3145,75.9023
1448.2787,75.5786
1449.2429,75.2628
1450.2072,74.9629
1451.1714,74.6913
1452.1356,74.464
1453.0999,74.2877
1454.0641,74.1467
1455.0283,74.0118
1455.9926,73.8983
1456.9568,73.9012
1457.9210,74.0213
1458.8853,74.0884
1459.8495,74.0298
1460.8137,73.9264
1461.7780,73.8924
1462.7422,74.0297
1463.7064,74.4247
1464.6707,75.0993
1465.6349,75.9409
1466.5991,76.7653
1467.5634,77.4773
1468.5276,78.1102
1469.4918,78.7527
1470.4561,79.4921
1471.4203,80.3967
1472.3845,81.474
1473.3488,82.5816
1474.3130,83.4695
1475.2772,84.0021
1476.2415,84.2244
1477.2057,84.2454
1478.1699,84.1592
1479.1342,84.0411
1480.0984,83.9592
1481.0626,83.9694
1482.0269,84.0952
1482.9911,84.3166
1483.9553,84.5832
1484.9196,84.84
1485.8838,85.0427
1486.8480,85.1671
1487.8123,85.2274
1488.7765,85.2812
1489.7407,85.363
1490.7050,85.4233
1491.6692,85.4001
1492.6334,85.288
1493.5977,85.1074
1494.5619,84.8582
1495.5261,84.5141
1496.4904,84.0569
1497.4546,83.5142
1498.4188,82.9425
1499.3831,82.3817
1500.3473,81.8618
1501.3115,81.4218
1502.2758,81.0926
1503.2400,80.8643
1504.2042,80.6593
1505.1685,80.3378
1506.1327,79.8273
1507.0969,79.3289
1508.0612,79.0557
1509.0254,78.8615
1509.9896,78.5922
1510.9539,78.2588
1511.9181,77.9255
1512.8823,77.6628
1513.8466,77.5576
1514.8108,77.7076
1515.7750,78.1754
1516.7393,78.942
1517.7035,79.9387
1518.6677,81.1425
1519.6320,82.6111
1520.5962,84.3747
1521.5604,86.2812
1522.5247,88.0404
1523.4889,89.4764
1524.4531,90.6488
1525.4174,91.7208
1526.3816,92.7738
1527.3458,93.7573
1528.3101,94.5795
1529.2743,95.2124
1530.2385,95.7122
1531.2028,96.178
1532.1670,96.6949
1533.1312,97.27
1534.0955,97.8156
1535.0597,98.2422
1536.0239,98.5469
1536.9882,98.7715
1537.9524,98.911
1538.9166,98.9002
1539.8809,98.7663
1540.8451,98.7777
1541.8093,99.0855
1542.7736,99.4775
1543.7378,99.7833
1544.7020,99.9872
1545.6663,100.105
1546.6305,100.143
1547.5947,100.118
1548.5590,100.076
1549.5232,100.015
1550.4874,99.9377
1551.4517,99.8347
1552.4159,99.7048
1553.3801,99.573
1554.3444,99.4778
1555.3086,99.433
1556.2728,99.3966
1557.2371,99.3165
1558.2013,99.2691
1559.1655,99.3205
1560.1298,99.2204
1561.0940,98.8262
1562.0582,98.2848
1563.0225,97.7646
1563.9867,97.3428
1564.9509,97.0207
1565.9152,96.754
1566.8794,96.4777
1567.8436,96.1366
1568.8079,95.7209
1569.7721,95.2702
1570.7363,94.8355
1571.7006,94.4459
1572.6648,94.095
1573.6290,93.7313
1574.5933,93.2717
1575.5575,92.6763
1576.5217,92.0208
1577.4860,91.4155
1578.4502,90.8771
1579.4144,90.3636
1580.3787,89.8413
1581.3429,89.2906
1582.3071,88.7021
1583.2714,88.0815
1584.2356,87.4463
1585.1998,86.8096
1586.1641,86.1716
1587.1283,85.5268
1588.0925,84.8759
1589.0568,84.2293
1590.0210,83.5995
1590.9852,82.9951
1591.9495,82.4213
1592.9137,81.8871
1593.8779,81.4081
1594.8422,80.9999
1595.8064,80.6668
1596.7706,80.3979
1597.7349,80.1755
1598.6991,79.9858
1599.6633,79.8248
1600.6276,79.6968
1601.5918,79.6082
1602.5560,79.5606
1603.5203,79.546
1604.4845,79.5508
1605.4487,79.5663
1606.4130,79.5973
1607.3772,79.6626
1608.3414,79.7825
1609.3057,79.9573
1610.2699,80.1605
1611.2341,80.3632
1612.1984,80.5628
1613.1626,80.7898
1614.1268,81.1004
1615.0911,81.5661
1616.0553,82.2148
1617.0195,82.9332
1617.9838,83.5231
1618.9480,83.9112
1619.9122,84.1892
1620.8765,84.4925
1621.8407,84.9096
1622.8049,85.4483
1623.7692,86.0377
1624.7334,86.5839
1625.6976,87.0521
1626.6619,87.4781
1627.6261,87.9051
1628.5903,88.331
1629.5546,88.7202
1630.5188,89.0536
1631.4830,89.3493
1632.4473,89.6358
1633.4115,89.9214
1634.3757,90.2092
1635.3400,90.5336
1636.3042,90.8996
1637.2684,91.2024
1638.2327,91.3641
1639.1969,91.4275
1640.1611,91.4716
1641.1254,91.545
1642.0896,91.6566
1643.0538,91.7798
1644.0181,91.857
1644.9823,91.8326
1645.9465,91.7271
1646.9108,91.6478
1647.8750,91.6684
1648.8392,91.7923
1649.8035,92.0118
1650.7677,92.2899
1651.7319,92.5287
1652.6962,92.6491
1653.6604,92.6583
1654.6246,92.4984
1655.5889,92.1394
1656.5531,91.7166
1657.5173,91.372
1658.4816,91.1538
1659.4458,91.0288
1660.4100,90.9282
1661.3743,90.8018
1662.3385,90.6463
1663.3027,90.4815
1664.2670,90.3201
1665.2312,90.1661
1666.1954,90.011
1667.1597,89.8258
1668.1239,89.5841
1669.0881,89.3098
1670.0524,89.0772
1671.0166,88.9325
1671.9808,88.8595
1672.9451,88.8206
1673.9093,88.7772
1674.8735,88.6823
1675.8378,88.4911
1676.8020,88.1941
1677.7662,87.8384
1678.7305,87.5062
1679.6947,87.2643
1680.6589,87.1233
1681.6232,87.0273
1682.5874,86.8966
1683.5516,86.71
1684.5159,86.4922
1685.4801,86.2147
1686.4443,85.8535
1687.4086,85.4537
1688.3728,85.079
1689.3370,84.7693
1690.3013,84.5363
1691.2655,84.3677
1692.2297,84.2292
1693.1940,84.0673
1694.1582,83.8245
1695.1224,83.4764
1696.0867,83.0757
1697.0509,82.7528
1698.0151,82.6256
1698.9794,82.6717
1699.9436,82.7224
1700.9078,82.6204
1701.8721,82.3514
1702.8363,82.0186
1703.8005,81.7465
1704.7648,81.616
1705.7290,81.641
1706.6932,81.7719
1707.6575,81.9304
1708.6217,82.0637
1709.5859,82.1687
1710.5502,82.2723
1711.5144,82.3976
1712.4786,82.5491
1713.4429,82.7213
1714.4071,82.9293
1715.3713,83.2522
1716.3356,83.8098
1717.2998,84.573
1718.2640,85.2751
1719.2283,85.7104
1720.1925,85.9229
1721.1567,86.0676
1722.1210,86.2642
1723.0852,86.5533
1724.0494,86.91
1725.0137,87.2774
1725.9779,87.6057
1726.9421,87.8775
1727.9064,88.1091
1728.8706,88.3344
1729.8348,88.5882
1730.7991,88.9007
1731.7633,89.3016
1732.7275,89.8089
1733.6918,90.3638
1734.6560,90.808
1735.6202,91.0384
1736.5845,91.1154
1737.5487,91.1737
1738.5129,91.3082
1739.4772,91.5369
1740.4414,91.8151
1741.4056,92.0753
1742.3699,92.2747
1743.3341,92.418
1744.2983,92.5397
1745.2626,92.673
1746.2268,92.8373
1747.1910,93.0511
1748.1553,93.346
1749.1195,93.7468
1750.0837,94.211
1751.0480,94.6238
1752.0122,94.8962
1752.9764,95.0334
1753.9407,95.1015
1754.9049,95.1654
1755.8691,95.2585
1756.8334,95.3825
1757.7976,95.5239
1758.7618,95.6732
1759.7261,95.8325
1760.6903,96.0086
1761.6545,96.1968
1762.6188,96.376
1763.5830,96.525
1764.5472,96.6421
1765.5115,96.7436
1766.4757,96.8456
1767.4399,96.9492
1768.4042,97.0423
1769.3684,97.1162
1770.3326,97.1889
1771.2969,97.3077
1772.2611,97.5026
1773.2253,97.7309
1774.1896,97.9147
1775.1538,98.026
1776.1180,98.0988
1777.0823,98.1808
1778.0465,98.2974
1779.0107,98.4465
1779.9750,98.6122
1780.9392,98.7796
1781.9034,98.941
1782.8677,99.0919
1783.8319,99.2227
1784.7961,99.3186
1785.7604,99.371
1786.7246,99.3898
1787.6888,99.4
1788.6531,99.4221
1789.6173,99.4565
1790.5815,99.49
1791.5458,99.5178
1792.5100,99.5437
1793.4742,99.555
1794.4385,99.5367
1795.4027,99.5032
1796.3669,99.4869
1797.3312,99.5068
1798.2954,99.5585
1799.2596,99.6251
1800.2239,99.692
1801.1881,99.7502
1802.1523,99.7928
1803.1166,99.8163
1804.0808,99.8231
1805.0450,99.818
1806.0093,99.8047
1806.9735,99.7838
1807.9377,99.7571
1808.9020,99.7327
1809.8662,99.724
1810.8304,99.74
1811.7947,99.7766
1812.7589,99.8197
1813.7231,99.8576
1814.6874,99.8856
1815.6516,99.9024
1816.6158,99.9071
1817.5801,99.8992
1818.5443,99.8812
1819.5085,99.8594
1820.4728,99.8421
1821.4370,99.8344
1822.4012,99.8341
1823.3655,99.8324
1824.3297,99.8186
1825.2939,99.7852
1826.2582,99.7334
1827.2224,99.6752
1828.1866,99.6318
1829.1509,99.623
1830.1151,99.6484
1831.0793,99.6793
1832.0436,99.6831
1833.0078,99.6664
1833.9720,99.6502
1834.9363,99.6371
1835.9005,99.6338
1836.8647,99.6378
1837.8290,99.6461
1838.7932,99.6629
1839.7574,99.698
1840.7217,99.7549
1841.6859,99.8189
1842.6501,99.8642
1843.6144,99.8764
1844.5786,99.8606
1845.5428,99.8271
1846.5071,99.7857
1847.4713,99.7531
1848.4355,99.7469
1849.3998,99.7705
1850.3640,99.8112
1851.3282,99.8498
1852.2925,99.8731
1853.2567,99.8794
1854.2209,99.8742
1855.1852,99.8639
1856.1494,99.8523
1857.1136,99.8413
1858.0779,99.8333
1859.0421,99.8312
1860.0063,99.8346
1860.9706,99.8374
1861.9348,99.8307
1862.8990,99.8081
1863.8633,99.77
1864.8275,99.721
1865.7917,99.668
1866.7560,99.6271
1867.7202,99.627
1868.6844,99.6866
1869.6487,99.782
1870.6129,99.8625
1871.5771,99.9011
1872.5414,99.9072
1873.5056,99.9032
1874.4698,99.9029
1875.4341,99.9084
1876.3983,99.9162
1877.3625,99.923
1878.3268,99.9277
1879.2910,99.9302
1880.2552,99.93
1881.2195,99.9255
1882.1837,99.9156
1883.1479,99.901
1884.1122,99.8854
1885.0764,99.8735
1886.0406,99.8687
1887.0049,99.871
1887.9691,99.8783
1888.9333,99.887
1889.8976,99.8915
1890.8618,99.8862
1891.8260,99.8699
1892.7903,99.849
1893.7545,99.8338
1894.7188,99.8325
1895.6830,99.8469
1896.6472,99.8711
1897.6115,99.8944
1898.5757,99.9079
1899.5399,99.9089
1900.5042,99.9
1901.4684,99.8861
1902.4326,99.8704
1903.3969,99.853
1904.3611,99.8309
1905.3253,99.8023
1906.2896,99.7688
1907.2538,99.7372
1908.2180,99.7174
1909.1823,99.7164
1910.1465,99.7321
1911.1107,99.7544
1912.0750,99.7734
1913.0392,99.7872
1914.0034,99.7995
1914.9677,99.8132
1915.9319,99.8257
1916.8961,99.8303
1917.8604,99.8191
1918.8246,99.7876
1919.7888,99.7397
1920.7531,99.6897
1921.7173,99.6559
1922.6815,99.6506
1923.6458,99.6725
1924.6100,99.7082
1925.5742,99.7407
1926.5385,99.7602
1927.5027,99.7663
1928.4669,99.7633
1929.4312,99.7565
1930.3954,99.7496
1931.3596,99.745
1932.3239,99.7442
1933.2881,99.7477
1934.2523,99.7542
1935.2166,99.7605
1936.1808,99.7629
1937.1450,99.7595
1938.1093,99.751
1939.0735,99.7391
1940.0377,99.7252
1941.0020,99.7114
1941.9662,99.7014
1942.9304,99.6985
1943.8947,99.7022
1944.8589,99.7105
1945.8231,99.7232
1946.7874,99.7417
1947.7516,99.7656
1948.7158,99.7908
1949.6801,99.8112
1950.6443,99.8228
1951.6085,99.8261
1952.5728,99.8259
1953.5370,99.8279
1954.5012,99.8355
1955.4655,99.8479
1956.4297,99.8617
1957.3939,99.8731
1958.3582,99.8801
1959.3224,99.8832
1960.2866,99.8831
1961.2509,99.8803
1962.2151,99.8744
1963.1793,99.8653
1964.1436,99.8547
1965.1078,99.8468
1966.0720,99.8473
1967.0363,99.8602
1968.0005,99.8838
1968.9647,99.9111
1969.9290,99.9346
1970.8932,99.9504
1971.8574,99.9588
1972.8217,99.9624
1973.7859,99.9636
1974.7501,99.9645
1975.7144,99.9657
1976.6786,99.9668
1977.6428,99.9678
1978.6071,99.9687
1979.5713,99.97
1980.5355,99.9719
1981.4998,99.9739
1982.4640,99.975
1983.4282,99.9733
1984.3925,99.9675
1985.3567,99.9572
1986.3209,99.943
1987.2852,99.9269
1988.2494,99.9112
1989.2136,99.8986
1990.1779,99.8918
1991.1421,99.8932
1992.1063,99.9026
1993.0706,99.9164
1994.0348,99.929
1994.9990,99.9367
1995.9633,99.9388
1996.9275,99.9371
1997.8917,99.934
1998.8560,99.9319
1999.8202,99.932
2000.7844,99.9339
2001.7487,99.936
2002.7129,99.9362
2003.6771,99.933
2004.6414,99.926
2005.6056,99.9163
2006.5698,99.9061
2007.5341,99.8973
2008.4983,99.8913
2009.4625,99.888
2010.4268,99.8855
2011.3910,99.8813
2012.3552,99.8728
2013.3195,99.8587
2014.2837,99.8402
2015.2479,99.8212
2016.2122,99.8071
2017.1764,99.8025
2018.1406,99.8078
2019.1049,99.8189
2020.0691,99.83
2021.0333,99.8365
2021.9976,99.8369
2022.9618,99.8327
2023.9260,99.8268
2024.8903,99.8218
2025.8545,99.8188
2026.8187,99.8171
2027.7830,99.8155
2028.7472,99.8126
2029.7114,99.8081
2030.6757,99.8023
2031.6399,99.796
2032.6041,99.7904
2033.5684,99.7864
2034.5326,99.7842
2035.4968,99.7825
2036.4611,99.7795
2037.4253,99.7734
2038.3895,99.7635
2039.3538,99.7517
2040.3180,99.7413
2041.2822,99.7356
2042.2465,99.736
2043.2107,99.7407
2044.1749,99.7461
2045.1392,99.749
2046.1034,99.7476
2047.0676,99.7425
2048.0320,99.7353
2048.9961,99.728
2049.9604,99.7217
2050.9246,99.7171
2051.8889,99.7137
2052.8530,99.7111
2053.8174,99.7086
2054.7815,99.7062
2055.7458,99.7039
2056.7100,99.7019
2057.6743,99.6997
2058.6384,99.6961
2059.6028,99.6893
2060.5669,99.6786
2061.5313,99.6646
2062.4954,99.6504
2063.4597,99.6401
2064.4238,99.6374
2065.3882,99.6437
2066.3523,99.6572
2067.3167,99.6737
2068.2808,99.6891
2069.2451,99.7008
2070.2092,99.7079
2071.1736,99.7114
2072.1377,99.7131
2073.1021,99.7147
2074.0662,99.7171
2075.0305,99.7201
2075.9946,99.723
2076.9590,99.7251
2077.9231,99.726
2078.8875,99.7263
2079.8516,99.7269
2080.8159,99.7284
2081.7800,99.7307
2082.7444,99.7332
2083.7085,99.7352
2084.6729,99.7369
2085.6370,99.739
2086.6013,99.7426
2087.5654,99.7478
2088.5298,99.7536
2089.4939,99.758
2090.4583,99.7598
2091.4224,99.7589
2092.3867,99.7565
2093.3508,99.7546
2094.3152,99.7545
2095.2793,99.7561
2096.2437,99.7583
2097.2078,99.7597
2098.1721,99.7597
2099.1362,99.7582
2100.1006,99.7549
2101.0647,99.7534
2102.0291,99.7526
2102.9932,99.7528
2103.9575,99.7537
2104.9216,99.7545
2105.8860,99.7544
2106.8501,99.7526
2107.8145,99.7488
2108.7786,99.7431
2109.7429,99.7363
2110.7070,99.7296
2111.6714,99.7245
2112.6355,99.722
2113.5999,99.7226
2114.5640,99.7259
2115.5283,99.7307
2116.4924,99.7356
2117.4568,99.7394
2118.4209,99.7413
2119.3853,99.7411
2120.3494,99.7388
2121.3137,99.7347
2122.2778,99.7294
2123.2422,99.7234
2124.2063,99.7179
2125.1707,99.7141
2126.1348,99.7135
2127.0991,99.7164
2128.0632,99.7225
2129.0276,99.73
2129.9917,99.7365
2130.9561,99.7397
2131.9202,99.7387
2132.8845,99.7341
2133.8486,99.7282
2134.8130,99.7242
2135.7771,99.7244
2136.7415,99.7296
2137.7056,99.7386
2138.6699,99.7485
2139.6340,99.7567
2140.5984,99.7618
2141.5625,99.7645
2142.5269,99.7666
2143.4910,99.7702
2144.4553,99.7761
2145.4194,99.7838
2146.3838,99.7916
2147.3479,99.798
2148.3123,99.8018
2149.2764,99.8029
2150.2407,99.8018
2151.2048,99.7998
2152.1692,99.7983
2153.1333,99.7987
2154.0977,99.8021
2155.0618,99.8081
2156.0261,99.8156
2156.9902,99.8226
2157.9546,99.8277
2158.9187,99.8308
2159.8831,99.8332
2160.8472,99.8366
2161.8115,99.8419
2162.7756,99.8484
2163.7400,99.854
2164.7041,99.8565
2165.6685,99.8546
2166.6326,99.8491
2167.5969,99.8424
2168.5610,99.8374
2169.5254,99.8361
2170.4895,99.8387
2171.4539,99.8438
2172.4180,99.8486
2173.3823,99.8513
2174.3464,99.8512
2175.3108,99.8494
2176.2749,99.8479
2177.2393,99.8482
2178.2034,99.8503
2179.1677,99.8524
2180.1318,99.8521
2181.0962,99.8476
2182.0603,99.8389
2183.0247,99.8281
2183.9888,99.8183
2184.9531,99.8124
2185.9172,99.8118
2186.8816,99.8161
2187.8457,99.824
2188.8101,99.8334
2189.7742,99.8424
2190.7385,99.8499
2191.7026,99.8554
2192.6670,99.8589
2193.6311,99.861
2194.5955,99.8622
2195.5596,99.863
2196.5239,99.8633
2197.4880,99.8627
2198.4524,99.861
2199.4165,99.8582
2200.3809,99.8553
2201.3450,99.8536
2202.3093,99.8542
2203.2734,99.857
2204.2378,99.8606
2205.2019,99.8633
2206.1663,99.8641
2207.1304,99.863
2208.0947,99.8612
2209.0588,99.8597
2210.0232,99.8587
2210.9873,99.8575
2211.9517,99.8549
2212.9158,99.8507
2213.8801,99.8461
2214.8442,99.8429
2215.8086,99.8424
2216.7727,99.8442
2217.7371,99.8463
2218.7012,99.8465
2219.6655,99.8433
2220.6296,99.8373
2221.5940,99.8308
2222.5581,99.8263
2223.5225,99.8251
2224.4866,99.8268
2225.4509,99.829
2226.4150,99.8317
2227.3794,99.8367
2228.3435,99.8366
2229.3079,99.8326
2230.2720,99.8267
2231.2363,99.8214
2232.2004,99.8184
2233.1648,99.8188
2234.1289,99.8225
2235.0933,99.8287
2236.0574,99.8362
2237.0217,99.8434
2237.9858,99.8488
2238.9502,99.8515
2239.9143,99.8512
2240.8787,99.8489
2241.8428,99.8458
2242.8071,99.8434
2243.7712,99.8423
2244.7356,99.8423
2245.6997,99.843
2246.6641,99.8438
2247.6282,99.8443
2248.5925,99.8441
2249.5566,99.8429
2250.5210,99.8402
2251.4851,99.8355
2252.4495,99.8287
2253.4136,99.8203
2254.3779,99.8111
2255.3420,99.802
2256.3064,99.7936
2257.2705,99.7862
2258.2349,99.7796
2259.1990,99.7735
2260.1633,99.7678
2261.1274,99.7628
2262.0918,99.7591
2263.0559,99.7575
2264.0203,99.7584
2264.9844,99.7619
2265.9487,99.7673
2266.9128,99.7731
2267.8772,99.7778
2268.8413,99.7802
2269.8057,99.7804
2270.7698,99.7795
2271.7341,99.7794
2272.6982,99.7816
2273.6626,99.7869
2274.6267,99.7954
2275.5911,99.8066
2276.5552,99.8199
2277.5195,99.835
2278.4836,99.8514
2279.4480,99.868
2280.4121,99.8827
2281.3765,99.8931
2282.3406,99.8966
2283.3049,99.8917
2284.2690,99.8782
2285.2334,99.8575
2286.1975,99.832
2287.1619,99.8044
2288.1260,99.7759
2289.0903,99.7467
2290.0544,99.7156
2291.0188,99.6825
2291.9829,99.6494
2292.9473,99.6205
2293.9114,99.6002
2294.8757,99.5912
2295.8398,99.5932
2296.8042,99.6034
2297.7683,99.6192
2298.7327,99.6406
2299.6968,99.67
2300.6611,99.7097
2301.6252,99.7592
2302.5896,99.8128
2303.5537,99.8613
2304.5181,99.8957
2305.4822,99.9123
2306.4465,99.9155
2307.4106,99.9175
2308.3750,99.9332
2309.3391,99.9736
2310.3035,100.04
2311.2676,100.125
2312.2319,100.213
2313.1960,100.292
2314.1604,100.358
2315.1245,100.414
2316.0889,100.471
2317.0530,100.538
2318.0173,100.617
2318.9814,100.696
2319.9458,100.755
2320.9099,100.76
2321.8743,100.688
2322.8384,100.532
2323.8027,100.32
2324.7668,100.101
2325.7312,99.9348
2326.6953,99.8614
2327.6597,99.8857
2328.6238,99.9727
2329.5881,100.06
2330.5522,100.087
2331.5166,100.023
2332.4807,99.8802
2333.4451,99.7037
2334.4092,99.5414
2335.3735,99.4213
2336.3376,99.3434
2337.3020,99.2874
2338.2661,99.2284
2339.2305,99.1546
2340.1946,99.0815
2341.1589,99.0601
2342.1230,99.1648
2343.0874,99.431
2344.0515,99.7626
2345.0159,99.9611
2345.9800,99.9098
2346.9443,99.677
2347.9084,99.4287
2348.8728,99.3022
2349.8369,99.3409
2350.8013,99.489
2351.7654,99.6261
2352.7297,99.6415
2353.6938,99.5128
2354.6582,99.3102
2355.6223,99.1009
2356.5867,98.8853
2357.5508,98.6423
2358.5151,98.3969
2359.4792,98.2141
2360.4436,98.1389
2361.4077,98.1665
2362.3721,98.2717
2363.3362,98.4457
2364.3005,98.6947
2365.2646,99.017
2366.2290,99.3894
2367.1931,99.7741
2368.1575,100.134
2369.1216,100.442
2370.0859,100.686
2371.0500,100.869
2372.0144,101
2372.9785,101.088
2373.9429,101.133
2374.9070,101.127
2375.8713,101.064
2376.8354,100.945
2377.7998,100.78
2378.7639,100.593
2379.7283,100.412
2380.6924,100.26
2381.6567,100.145
2382.6208,100.071
2383.5852,100.032
2384.5493,100.021
2385.5137,100.026
2386.4778,100.039
2387.4421,100.053
2388.4063,100.065
2389.3706,100.073
2390.3347,100.076
2391.2991,100.077
2392.2632,100.076
2393.2275,100.074
2394.1917,100.073
2395.1560,100.074
2396.1201,100.076
2397.0845,100.079
2398.0486,100.082
2399.0129,100.084
2399.9771,100.086
2400.9414,100.087
2401.9055,100.086
2402.8699,100.083
2403.8340,100.079
2404.7983,100.075
2405.7625,100.073
2406.7268,100.076
2407.6909,100.081
2408.6553,100.087
2409.6194,100.091
2410.5837,100.091
2411.5479,100.089
2412.5122,100.085
2413.4763,100.081
2414.4407,100.081
2415.4048,100.085
2416.3691,100.092
2417.3333,100.099
2418.2976,100.106
2419.2617,100.109
2420.2261,100.108
2421.1902,100.103
2422.1545,100.096
2423.1187,100.091
2424.0830,100.091
2425.0471,100.096
2426.0115,100.106
2426.9756,100.117
2427.9399,100.126
2428.9041,100.13
2429.8684,100.129
2430.8325,100.127
2431.7969,100.124
2432.7610,100.123
2433.7253,100.125
2434.6895,100.126
2435.6538,100.128
2436.6179,100.128
2437.5823,100.127
2438.5464,100.127
2439.5107,100.13
2440.4749,100.134
2441.4392,100.14
2442.4033,100.146
2443.3677,100.151
2444.3318,100.154
2445.2961,100.155
2446.2603,100.154
2447.2246,100.149
2448.1887,100.143
2449.1531,100.137
2450.1172,100.131
2451.0815,100.127
2452.0457,100.126
2453.0100,100.125
2453.9741,100.125
2454.9385,100.124
2455.9026,100.121
2456.8669,100.116
2457.8311,100.112
2458.7954,100.108
2459.7595,100.105
2460.7239,100.103
2461.6880,100.102
2462.6523,100.102
2463.6165,100.103
2464.5808,100.104
2465.5449,100.106
2466.5093,100.105
2467.4734,100.102
2468.4377,100.096
2469.4019,100.089
2470.3662,100.081
2471.3303,100.075
2472.2947,100.072
2473.2588,100.071
2474.2231,100.072
2475.1873,100.073
2476.1516,100.073
2477.1157,100.072
2478.0801,100.07
2479.0442,100.066
2480.0085,100.062
2480.9727,100.059
2481.9370,100.059
2482.9011,100.061
2483.8655,100.065
2484.8296,100.068
2485.7939,100.069
2486.7581,100.069
2487.7224,100.066
2488.6865,100.062
2489.6509,100.059
2490.6150,100.056
2491.5793,100.052
2492.5435,100.048
2493.5078,100.044
2494.4719,100.041
2495.4363,100.04
2496.4004,100.042
2497.3647,100.045
2498.3289,100.048
2499.2932,100.048
2500.2573,100.045
2501.2217,100.04
2502.1858,100.035
2503.1501,100.031
2504.1143,100.03
2505.0786,100.031
2506.0427,100.034
2507.0071,100.035
2507.9712,100.034
2508.9355,100.029
2509.8997,100.023
2510.8640,100.016
2511.8281,100.01
2512.7925,100.006
2513.7566,100.004
2514.7209,100.006
2515.6851,100.01
2516.6494,100.016
2517.6135,100.022
2518.5779,100.025
2519.5420,100.024
2520.5063,100.019
2521.4705,100.012
2522.4348,100.005
2523.3989,99.9993
2524.3633,99.9969
2525.3274,99.9966
2526.2917,99.9964
2527.2559,99.9948
2528.2202,99.9907
2529.1843,99.9843
2530.1487,99.9762
2531.1128,99.9672
2532.0771,99.9586
2533.0413,99.9518
2534.0056,99.9478
2534.9697,99.947
2535.9341,99.9487
2536.8982,99.952
2537.8625,99.9556
2538.8267,99.9588
2539.7910,99.9616
2540.7551,99.9639
2541.7195,99.9657
2542.6836,99.9667
2543.6479,99.9666
2544.6121,99.9651
2545.5764,99.9626
2546.5405,99.9594
2547.5049,99.9561
2548.4690,99.9533
2549.4333,99.9518
2550.3975,99.9523
2551.3618,99.9554
2552.3259,99.9606
2553.2903,99.9668
2554.2544,99.972
2555.2188,99.9746
2556.1829,99.9741
2557.1472,99.9715
2558.1113,99.9691
2559.0757,99.9685
2560.0398,99.9704
2561.0042,99.9735
2561.9683,99.9756
2562.9326,99.9749
2563.8967,99.971
2564.8611,99.9653
2565.8252,99.96
2566.7896,99.9571
2567.7537,99.9574
2568.7180,99.9605
2569.6821,99.9646
2570.6465,99.9677
2571.6106,99.9683
2572.5750,99.9657
2573.5391,99.9603
2574.5034,99.9541
2575.4675,99.9494
2576.4319,99.9481
2577.3960,99.9508
2578.3604,99.9566
2579.3245,99.9629
2580.2888,99.9675
2581.2529,99.969
2582.2173,99.968
2583.1814,99.966
2584.1458,99.9648
2585.1099,99.9647
2586.0742,99.9647
2587.0383,99.9631
2588.0027,99.9584
2588.9668,99.9506
2589.9312,99.9413
2590.8953,99.9328
2591.8596,99.927
2592.8237,99.9244
2593.7881,99.9242
2594.7522,99.9246
2595.7166,99.9239
2596.6807,99.9218
2597.6450,99.9192
2598.6091,99.9179
2599.5735,99.9191
2600.5376,99.9231
2601.5020,99.9281
2602.4661,99.9315
2603.4304,99.9313
2604.3945,99.927
2605.3589,99.9203
2606.3230,99.9142
2607.2874,99.9113
2608.2515,99.9124
2609.2158,99.9162
2610.1799,99.9204
2611.1443,99.923
2612.1084,99.9233
2613.0728,99.9222
2614.0369,99.9212
2615.0012,99.9213
2615.9653,99.9223
2616.9297,99.9234
2617.8938,99.9238
2618.8582,99.9232
2619.8223,99.9218
2620.7866,99.9202
2621.7507,99.9188
2622.7151,99.9176
2623.6792,99.9166
2624.6436,99.9159
2625.6077,99.9156
2626.5720,99.916
2627.5361,99.9171
2628.5005,99.9186
2629.4646,99.9195
2630.4290,99.9192
2631.3931,99.9172
2632.3574,99.9142
2633.3215,99.9114
2634.2859,99.91
2635.2500,99.9105
2636.2144,99.9128
2637.1785,99.9161
2638.1428,99.9195
2639.1069,99.9229
2640.0713,99.9266
2641.0354,99.9307
2641.9998,99.9349
2642.9639,99.9383
2643.9282,99.9403
2644.8923,99.9412
2645.8567,99.9415
2646.8208,99.942
2647.7852,99.9424
2648.7493,99.9416
2649.7136,99.9387
2650.6777,99.9335
2651.6421,99.9281
2652.6062,99.9252
2653.5706,99.9273
2654.5347,99.9354
2655.4990,99.9479
2656.4631,99.9619
2657.4275,99.9745
2658.3916,99.9835
2659.3560,99.9884
2660.3201,99.9901
2661.2844,99.9907
2662.2485,99.9925
2663.2129,99.9972
2664.1770,100.005
2665.1414,100.015
2666.1055,100.025
2667.0698,100.033
2668.0339,100.038
2668.9983,100.041
2669.9624,100.044
2670.9268,100.049
2671.8909,100.056
2672.8552,100.067
2673.8193,100.078
2674.7837,100.087
2675.7478,100.092
2676.7122,100.093
2677.6763,100.09
2678.6406,100.083
2679.6047,100.074
2680.5691,100.063
2681.5332,100.052
2682.4976,100.043
2683.4617,100.037
2684.4260,100.033
2685.3901,100.03
2686.3545,100.028
2687.3186,100.025
2688.2830,100.021
2689.2471,100.017
2690.2114,100.015
2691.1755,100.016
2692.1399,100.022
2693.1040,100.03
2694.0684,100.039
2695.0325,100.046
2695.9968,100.048
2696.9609,100.046
2697.9253,100.04
2698.8894,100.033
2699.8538,100.028
2700.8179,100.025
2701.7822,100.025
2702.7463,100.024
2703.7107,100.021
2704.6748,100.014
2705.6392,100.003
2706.6033,99.9905
2707.5676,99.9783
2708.5317,99.9683
2709.4961,99.9615
2710.4602,99.957
2711.4246,99.953
2712.3887,99.947
2713.3530,99.9373
2714.3171,99.9233
2715.2815,99.9067
2716.2456,99.8896
2717.2100,99.8746
2718.1741,99.863
2719.1384,99.8553
2720.1025,99.8508
2721.0669,99.848
2722.0310,99.8454
2722.9954,99.8413
2723.9595,99.8347
2724.9238,99.8252
2725.8879,99.8138
2726.8523,99.8018
2727.8164,99.7909
2728.7808,99.782
2729.7449,99.7752
2730.7092,99.7701
2731.6733,99.7665
2732.6377,99.7644
2733.6018,99.7634
2734.5662,99.7622
2735.5303,99.7591
2736.4946,99.7529
2737.4587,99.744
2738.4231,99.7352
2739.3872,99.7305
2740.3516,99.7332
2741.3157,99.7439
2742.2800,99.7605
2743.2441,99.7789
2744.2085,99.7955
2745.1726,99.808
2746.1370,99.8156
2747.1011,99.8186
2748.0654,99.8177
2749.0295,99.8135
2749.9939,99.8075
2750.9580,99.8018
2751.9224,99.7983
2752.8865,99.7979
2753.8508,99.7994
2754.8149,99.7994
2755.7793,99.795
2756.7434,99.7844
2757.7078,99.7692
2758.6719,99.753
2759.6362,99.7396
2760.6003,99.7309
2761.5647,99.7259
2762.5288,99.7216
2763.4932,99.7143
2764.4573,99.702
2765.4216,99.6854
2766.3857,99.6679
2767.3501,99.6531
2768.3142,99.6436
2769.2786,99.6315
2770.2427,99.606
2771.2070,99.5763
2772.1711,99.5379
2773.1355,99.4895
2774.0996,99.4339
2775.0640,99.3764
2776.0281,99.3218
2776.9924,99.2723
2777.9565,99.2261
2778.9209,99.179
2779.8850,99.1271
2780.8494,99.0691
2781.8135,99.0071
2782.7778,98.9454
2783.7419,98.8881
2784.7063,98.8372
2785.6704,98.7915
2786.6348,98.7476
2787.5989,98.7011
2788.5632,98.6485
2789.5273,98.5885
2790.4917,98.5222
2791.4558,98.4523
2792.4202,98.3822
2793.3843,98.314
2794.3486,98.2478
2795.3127,98.1821
2796.2771,98.1143
2797.2412,98.0425
2798.2056,97.966
2799.1697,97.8854
2800.1340,97.8021
2801.0981,97.7181
2802.0625,97.635
2803.0266,97.5543
2803.9910,97.4769
2804.9551,97.4018
2805.9194,97.3264
2806.8835,97.2463
2807.8479,97.1572
2808.8120,97.0566
2809.7764,96.9449
2810.7405,96.8249
2811.7048,96.7007
2812.6689,96.5752
2813.6333,96.4496
2814.5974,96.3226
2815.5618,96.192
2816.5259,96.0551
2817.4902,95.9094
2818.4543,95.753
2819.4187,95.5843
2820.3828,95.4025
2821.3472,95.2073
2822.3113,94.9987
2823.2756,94.7761
2824.2397,94.5387
2825.2041,94.2854
2826.1682,94.0158
2827.1326,93.7299
2828.0967,93.4284
2829.0610,93.1117
2830.0251,92.7798
2830.9895,92.4333
2831.9536,92.074
2832.9180,91.7058
2833.8821,91.3334
2834.8464,90.9615
2835.8105,90.5933
2836.7749,90.2305
2837.7390,89.8745
2838.7034,89.5275
2839.6675,89.1918
2840.6318,88.8676
2841.5959,88.5513
2842.5603,88.235
2843.5244,87.9107
2844.4888,87.5758
2845.4529,87.2386
2846.4172,86.9183
2847.3813,86.6391
2848.3457,86.4195
2849.3098,86.2635
2850.2742,86.1586
2851.2383,86.0809
2852.2026,86.0061
2853.1667,85.9182
2854.1311,85.813
2855.0952,85.6947
2856.0596,85.5695
2857.0237,85.4399
2857.9880,85.3036
2858.9521,85.1558
2859.9165,84.9918
2860.8806,84.8103
2861.8450,84.6125
2862.8091,84.4021
2863.7734,84.1843
2864.7375,83.9649
2865.7019,83.7502
2866.6660,83.5459
2867.6304,83.3558
2868.5945,83.1813
2869.5588,83.022
2870.5229,82.877
2871.4873,82.7453
2872.4514,82.6261
2873.4158,82.518
2874.3799,82.4184
2875.3442,82.3233
2876.3083,82.2279
2877.2727,82.1279
2878.2368,82.0207
2879.2012,81.9067
2880.1653,81.7898
2881.1296,81.6772
2882.0938,81.5777
2883.0581,81.4991
2884.0222,81.4456
2884.9866,81.4158
2885.9507,81.4023
2886.9150,81.3937
2887.8792,81.3775
2888.8435,81.3451
2889.8076,81.2947
2890.7720,81.2331
2891.7361,81.1709
2892.7004,81.1152
2893.6646,81.0613
2894.6289,80.9902
2895.5930,80.8763
2896.5574,80.7012
2897.5215,80.4688
2898.4858,80.2085
2899.4500,79.9652
2900.4143,79.7792
2901.3784,79.6673
2902.3428,79.617
2903.3069,79.5946
2904.2712,79.5622
2905.2354,79.4936
2906.1997,79.3791
2907.1638,79.2223
2908.1282,79.032
2909.0923,78.8168
2910.0566,78.5833
2911.0208,78.3386
2911.9851,78.0916
2912.9492,77.8521
2913.9136,77.6298
2914.8777,77.4316
2915.8420,77.2612
2916.8062,77.1182
2917.7705,76.9992
2918.7346,76.8976
2919.6990,76.8063
2920.6631,76.7193
2921.6274,76.6336
2922.5916,76.549
2923.5559,76.4674
2924.5200,76.3906
2925.4844,76.3197
2926.4485,76.2556
2927.4128,76.1998
2928.3770,76.1542
2929.3413,76.1211
2930.3054,76.1024
2931.2698,76.0999
2932.2339,76.1161
2933.1982,76.1547
2934.1624,76.2197
2935.1267,76.3136
2936.0908,76.4359
2937.0552,76.5821
2938.0193,76.745
2938.9836,76.9177
2939.9478,77.0955
2940.9121,77.2773
2941.8762,77.4644
2942.8406,77.6577
2943.8047,77.8552
2944.7690,78.0497
2945.7332,78.2307
2946.6975,78.3875
2947.6616,78.5129
2948.6260,78.606
2949.5901,78.6716
2950.5544,78.7171
2951.5186,78.7495
2952.4829,78.7732
2953.4470,78.7905
2954.4114,78.8033
2955.3755,78.8152
2956.3398,78.8317
2957.3040,78.8584
2958.2683,78.8983
2959.2324,78.9504
2960.1968,79.0093
2961.1609,79.0683
2962.1252,79.1221
2963.0894,79.1693
2964.0537,79.2122
2965.0178,79.2548
2965.9822,79.3013
2966.9463,79.3549
2967.9106,79.4195
2968.8748,79.5007
2969.8391,79.6059
2970.8032,79.7423
2971.7676,79.9129
2972.7317,80.1144
2973.6960,80.3385
2974.6602,80.5747
2975.6245,80.8148
2976.5886,81.055
2977.5530,81.2949
2978.5171,81.5357
2979.4814,81.7775
2980.4456,82.0167
2981.4099,82.2448
2982.3740,82.4492
2983.3384,82.6177
2984.3025,82.7468
2985.2668,82.8505
2986.2310,82.9623
2987.1953,83.1271
2988.1594,83.3823
2989.1238,83.738
2990.0879,84.1687
2991.0522,84.6219
2992.0164,85.0408
2992.9807,85.3878
2993.9448,85.6567
2994.9092,85.8685
2995.8733,86.0549
2996.8376,86.2416
2997.8018,86.4403
2998.7661,86.6502
2999.7302,86.8659
3000.6946,87.0839
3001.6587,87.3046
3002.6230,87.5305
3003.5872,87.7638
3004.5515,88.0045
3005.5156,88.2499
3006.4800,88.4949
3007.4441,88.7336
3008.4084,88.9613
3009.3726,89.1766
3010.3369,89.3826
3011.3010,89.5855
3012.2654,89.7903
3013.2295,89.9973
3014.1938,90.2015
3015.1580,90.3952
3016.1223,90.5727
3017.0864,90.733
3018.0508,90.879
3019.0149,91.0145
3019.9792,91.1411
3020.9434,91.2578
3021.9077,91.3631
3022.8718,91.4574
3023.8362,91.5437
3024.8003,91.6258
3025.7646,91.7057
3026.7288,91.7827
3027.6931,91.8541
3028.6572,91.9185
3029.6216,91.9766
3030.5857,92.0313
3031.5500,92.0853
3032.5142,92.1392
3033.4785,92.1918
3034.4426,92.2409
3035.4070,92.285
3036.3711,92.3241
3037.3354,92.3577
3038.2996,92.385
3039.2639,92.4033
3040.2280,92.41
3041.1924,92.4036
3042.1565,92.3849
3043.1208,92.3576
3044.0850,92.3268
3045.0493,92.2979
3046.0134,92.2748
3046.9778,92.2578
3047.9419,92.2431
3048.9063,92.2242
3049.8704,92.1945
3050.8347,92.1504
3051.7988,92.0941
3052.7632,92.032
3053.7273,91.9726
3054.6917,91.9226
3055.6558,91.8844
3056.6201,91.8561
3057.5842,91.8326
3058.5486,91.8079
3059.5127,91.7767
3060.4771,91.7356
3061.4412,91.6843
3062.4055,91.6259
3063.3696,91.5668
3064.3340,91.5143
3065.2981,91.4735
3066.2625,91.4447
3067.2266,91.4232
3068.1909,91.4021
3069.1550,91.3765
3070.1194,91.3451
3071.0835,91.3098
3072.0479,91.2731
3073.0120,91.2357
3073.9763,91.1962
3074.9404,91.1525
3075.9048,91.1042
3076.8689,91.0534
3077.8333,91.0037
3078.7974,90.9581
3079.7617,90.9172
3080.7258,90.8796
3081.6902,90.8427
3082.6543,90.804
3083.6187,90.7621
3084.5828,90.7165
3085.5471,90.6676
3086.5112,90.6167
3087.4756,90.565
3088.4397,90.5137
3089.4041,90.4621
3090.3682,90.4082
3091.3325,90.3488
3092.2966,90.2821
3093.2610,90.2083
3094.2251,90.1305
3095.1895,90.0528
3096.1536,89.9787
3097.1179,89.9095
3098.0820,89.8445
3099.0464,89.7825
3100.0105,89.7229
3100.9749,89.6654
3101.9390,89.6098
3102.9033,89.5547
3103.8674,89.4982
3104.8318,89.4381
3105.7959,89.374
3106.7603,89.3065
3107.7244,89.2368
3108.6887,89.1656
3109.6528,89.0923
3110.6172,89.016
3111.5813,88.9366
3112.5457,88.8555
3113.5098,88.7757
3114.4741,88.6999
3115.4382,88.6293
3116.4026,88.5628
3117.3667,88.498
3118.3311,88.4331
3119.2952,88.3679
3120.2595,88.3038
3121.2236,88.2423
3122.1880,88.1841
3123.1521,88.1285
3124.1165,88.0737
3125.0806,88.0178
3126.0449,87.9592
3127.0090,87.8964
3127.9734,87.828
3128.9375,87.7536
3129.9019,87.6745
3130.8660,87.5942
3131.8303,87.5171
3132.7944,87.4467
3133.7588,87.3838
3134.7229,87.3256
3135.6873,87.2679
3136.6514,87.2069
3137.6157,87.1412
3138.5798,87.0716
3139.5442,86.9997
3140.5083,86.9266
3141.4727,86.8523
3142.4368,86.7763
3143.4011,86.6987
3144.3652,86.6203
3145.3296,86.5427
3146.2937,86.4675
3147.2581,86.3954
3148.2222,86.3263
3149.1865,86.2588
3150.1506,86.1911
3151.1150,86.1216
3152.0791,86.0496
3153.0435,85.9753
3154.0076,85.8999
3154.9719,85.8248
3155.9360,85.7511
3156.9004,85.6793
3157.8645,85.609
3158.8289,85.5391
3159.7930,85.4684
3160.7573,85.3959
3161.7214,85.3212
3162.6858,85.2445
3163.6499,85.1667
3164.6143,85.0891
3165.5784,85.0129
3166.5427,84.9389
3167.5068,84.8672
3168.4712,84.7975
3169.4353,84.7696
3170.3997,84.6994
3171.3638,84.6255
3172.3281,84.5457
3173.2922,84.4596
3174.2566,84.3694
3175.2207,84.2791
3176.1851,84.1941
3177.1492,84.118
3178.1135,84.051
3179.0776,83.9899
3180.0420,83.9297
3181.0061,83.867
3181.9705,83.8012
3182.9346,83.7344
3183.8989,83.6692
3184.8630,83.6061
3185.8274,83.5436
3186.7915,83.4787
3187.7559,83.4097
3188.7200,83.3377
3189.6843,83.2659
3190.6484,83.1977
3191.6128,83.1345
3192.5769,83.0745
3193.5413,83.0139
3194.5054,82.9492
3195.4697,82.8791
3196.4338,82.8051
3197.3982,82.7307
3198.3623,82.6599
3199.3267,82.5963
3200.2908,82.5416
3201.2551,82.4956
3202.2192,82.4553
3203.1836,82.4162
3204.1477,82.3727
3205.1121,82.3211
3206.0762,82.261
3207.0405,82.1955
3208.0046,82.129
3208.9690,82.0646
3209.9331,82.0015
3210.8975,81.9367
3211.8616,81.8676
3212.8259,81.7956
3213.7900,81.7262
3214.7544,81.6668
3215.7185,81.6217
3216.6829,81.5894
3217.6470,81.5628
3218.6113,81.5327
3219.5754,81.492
3220.5398,81.4394
3221.5039,81.3784
3222.4683,81.3152
3223.4324,81.2557
3224.3967,81.2031
3225.3608,81.1582
3226.3252,81.12
3227.2893,81.087
3228.2537,81.0574
3229.2178,81.0288
3230.1821,80.999
3231.1462,80.9658
3232.1106,80.9282
3233.0747,80.8867
3234.0391,80.8424
3235.0032,80.7971
3235.9675,80.7518
3236.9316,80.7073
3237.8960,80.6639
3238.8601,80.6221
3239.8245,80.5825
3240.7886,80.5458
3241.7529,80.5122
3242.7170,80.4815
3243.6814,80.4525
3244.6455,80.4237
3245.6099,80.3928
3246.5740,80.3583
3247.5383,80.3194
3248.5024,80.2771
3249.4668,80.2331
3250.4309,80.1897
3251.3953,80.1486
3252.3594,80.1103
3253.3237,80.0744
3254.2878,80.0403
3255.2522,80.0077
3256.2163,79.977
3257.1807,79.9488
3258.1448,79.923
3259.1091,79.8986
3260.0732,79.8736
3261.0376,79.8461
3262.0017,79.8157
3262.9661,79.7837
3263.9302,79.7525
3264.8945,79.7249
3265.8586,79.7012
3266.8230,79.6794
3267.7871,79.6549
3268.7515,79.6232
3269.7156,79.5819
3270.6799,79.5329
3271.6440,79.4813
3272.6084,79.4342
3273.5725,79.3975
3274.5369,79.3739
3275.5010,79.3621
3276.4653,79.358
3277.4294,79.3561
3278.3938,79.352
3279.3579,79.3429
3280.3223,79.3285
3281.2864,79.3093
3282.2507,79.2866
3283.2148,79.2613
3284.1792,79.2335
3285.1433,79.203
3286.1077,79.1698
3287.0718,79.1339
3288.0361,79.0956
3289.0002,79.056
3289.9646,79.017
3290.9287,78.982
3291.8931,78.9551
3292.8572,78.9395
3293.8215,78.9348
3294.7856,78.9364
3295.7500,78.9367
3296.7141,78.9286
3297.6785,78.9087
3298.6426,78.8795
3299.6069,78.8469
3300.5710,78.8174
3301.5354,78.7942
3302.4995,78.7768
3303.4639,78.7628
3304.4280,78.7505
3305.3923,78.7403
3306.3564,78.7338
3307.3208,78.7323
3308.2849,78.7342
3309.2493,78.7363
3310.2134,78.7346
3311.1777,78.7269
3312.1418,78.7134
3313.1062,78.6965
3314.0703,78.6793
3315.0347,78.6644
3315.9988,78.6533
3316.9631,78.6458
3317.9272,78.6408
3318.8916,78.6366
3319.8557,78.6308
3320.8201,78.6214
3321.7842,78.6071
3322.7485,78.5876
3323.7126,78.5647
3324.6770,78.5418
3325.6411,78.5228
3326.6055,78.5106
3327.5696,78.5052
3328.5339,78.5034
3329.4980,78.4999
3330.4624,78.4901
3331.4265,78.4723
3332.3909,78.4486
3333.3550,78.424
3334.3193,78.404
3335.2834,78.3922
3336.2478,78.3891
3337.2119,78.393
3338.1763,78.4013
3339.1404,78.4121
3340.1047,78.4245
3341.0688,78.4375
3342.0332,78.449
3342.9973,78.4564
3343.9617,78.4576
3344.9258,78.4522
3345.8901,78.4428
3346.8542,78.4337
3347.8186,78.4292
3348.7827,78.4315
3349.7471,78.4399
3350.7112,78.4511
3351.6755,78.4611
3352.6396,78.4674
3353.6040,78.4692
3354.5681,78.4681
3355.5325,78.4664
3356.4966,78.4655
3357.4609,78.4655
3358.4250,78.4647
3359.3894,78.461
3360.3535,78.4537
3361.3179,78.4446
3362.2820,78.4383
3363.2463,78.4399
3364.2104,78.4527
3365.1748,78.4756
3366.1389,78.5034
3367.1033,78.5289
3368.0674,78.5471
3369.0317,78.5581
3369.9958,78.5665
3370.9602,78.5783
3371.9243,78.5974
3372.8887,78.623
3373.8528,78.6509
3374.8171,78.6765
3375.7813,78.6979
3376.7456,78.7164
3377.7097,78.7345
3378.6741,78.7531
3379.6382,78.7703
3380.6025,78.7828
3381.5667,78.7889
3382.5310,78.7907
3383.4951,78.7942
3384.4595,78.8059
3385.4236,78.8289
3386.3879,78.8619
3387.3521,78.8997
3388.3164,78.937
3389.2805,78.9708
3390.2449,79.0009
3391.2090,79.0293
3392.1733,79.0589
3393.1375,79.0926
3394.1018,79.1328
3395.0659,79.1811
3396.0303,79.2371
3396.9944,79.2967
3397.9587,79.3527
3398.9229,79.3972
3399.8872,79.4267
3400.8513,79.444
3401.8157,79.4577
3402.7798,79.4777
3403.7441,79.5106
3404.7083,79.5567
3405.6726,79.6118
3406.6367,79.6698
3407.6011,79.7261
3408.5652,79.7784
3409.5295,79.8266
3410.4937,79.8707
3411.4580,79.911
3412.4221,79.9485
3413.3865,79.9844
3414.3506,80.0208
3415.3149,80.0593
3416.2791,80.1008
3417.2434,80.1463
3418.2075,80.1974
3419.1719,80.2571
3420.1360,80.3272
3421.1003,80.4068
3422.0645,80.4908
3423.0288,80.5719
3423.9929,80.645
3424.9573,80.7088
3425.9214,80.7668
3426.8857,80.8249
3427.8499,80.8881
3428.8142,80.9577
3429.7783,81.0316
3430.7427,81.1061
3431.7068,81.179
3432.6711,81.2511
3433.6353,81.3245
3434.5996,81.4004
3435.5637,81.4765
3436.5281,81.5485
3437.4922,81.612
3438.4565,81.6664
3439.4207,81.7151
3440.3850,81.7637
3441.3491,81.817
3442.3135,81.8763
3443.2776,81.9401
3444.2419,82.0064
3445.2061,82.0755
3446.1704,82.1504
3447.1345,82.2345
3448.0989,82.3281
3449.0630,82.428
3450.0273,82.5295
3450.9915,82.6285
3451.9558,82.7224
3452.9199,82.8097
3453.8843,82.8896
3454.8484,82.9617
3455.8127,83.0265
3456.7769,83.0855
3457.7412,83.1417
3458.7053,83.1994
3459.6697,83.2637
3460.6338,83.3381
3461.5981,83.4241
3462.5623,83.5198
3463.5266,83.6219
3464.4907,83.7264
3465.4551,83.8309
3466.4192,83.9335
3467.3835,84.0319
3468.3477,84.1231
3469.3120,84.205
3470.2761,84.2777
3471.2405,84.346
3472.2046,84.4179
3473.1689,84.5005
3474.1331,84.5954
3475.0974,84.6964
3476.0615,84.7923
3477.0259,84.8736
3477.9900,84.938
3478.9543,84.9925
3479.9185,85.05
3480.8828,85.123
3481.8469,85.2163
3482.8113,85.3256
3483.7754,85.4411
3484.7397,85.5543
3485.7039,85.6621
3486.6682,85.7661
3487.6323,85.8693
3488.5967,85.9728
3489.5608,86.0735
3490.5251,86.1666
3491.4893,86.2484
3492.4536,86.3203
3493.4177,86.389
3494.3821,86.4637
3495.3462,86.5507
3496.3105,86.6483
3497.2747,86.7468
3498.2390,86.836
3499.2031,86.9121
3500.1675,86.9822
3501.1316,87.0626
3502.0959,87.1704
3503.0601,87.3103
3504.0244,87.4696
3504.9885,87.6271
3505.9529,87.7681
3506.9170,87.8899
3507.8813,87.9988
3508.8455,88.1044
3509.8098,88.2142
3510.7739,88.3305
3511.7383,88.452
3512.7024,88.5768
3513.6667,88.7042
3514.6309,88.8333
3515.5952,88.9602
3516.5593,89.0792
3517.5237,89.1851
3518.4878,89.2763
3519.4521,89.3559
3520.4163,89.43
3521.3806,89.5046
3522.3447,89.5846
3523.3091,89.673
3524.2732,89.7723
3525.2375,89.886
3526.2017,90.0186
3527.1660,90.1715
3528.1301,90.339
3529.0945,90.5074
3530.0586,90.6622
3531.0229,90.7971
3531.9871,90.918
3532.9514,91.0383
3533.9155,91.1713
3534.8799,91.3223
3535.8440,91.485
3536.8083,91.6435
3537.7725,91.7807
3538.7368,91.8881
3539.7009,91.9693
3540.6653,92.0373
3541.6294,92.1085
3542.5938,92.1987
3543.5579,92.322
3544.5222,92.4855
3545.4863,92.6806
3546.4507,92.8825
3547.4148,93.0659
3548.3792,93.2224
3549.3433,93.3626
3550.3076,93.5056
3551.2717,93.6675
3552.2361,93.8525
3553.2002,94.0499
3554.1646,94.2407
3555.1287,94.411
3556.0930,94.559
3557.0571,94.691
3558.0215,94.8137
3558.9856,94.9289
3559.9500,95.0324
3560.9141,95.1179
3561.8784,95.1824
3562.8425,95.2284
3563.8069,95.2676
3564.7710,95.3311
3565.7354,95.4753
3566.6995,95.7383
3567.6638,96.0711
3568.6279,96.3672
3569.5923,96.5694
3570.5564,96.6962
3571.5208,96.7921
3572.4849,96.8871
3573.4492,96.988
3574.4133,97.0897
3575.3777,97.1869
3576.3418,97.28
3577.3062,97.372
3578.2703,97.4635
3579.2346,97.5502
3580.1987,97.6266
3581.1631,97.6923
3582.1272,97.7542
3583.0916,97.8194
3584.0557,97.8888
3585.0200,97.9602
3585.9841,98.0429
3586.9485,98.1537
3587.9126,98.2803
3588.8770,98.3789
3589.8411,98.4265
3590.8054,98.4412
3591.7695,98.4526
3592.7339,98.4764
3593.6980,98.5115
3594.6624,98.5482
3595.6265,98.5761
3596.5908,98.5931
3597.5549,98.6122
3598.5193,98.656
3599.4834,98.7415
3600.4478,98.8649
3601.4119,99.0022
3602.3762,99.1277
3603.3403,99.2328
3604.3047,99.3254
3605.2688,99.4188
3606.2332,99.5232
3607.1973,99.6171
3608.1616,99.7039
3609.1257,99.7625
3610.0901,99.7697
3611.0542,99.7264
3612.0186,99.6582
3612.9829,99.5988
3613.9470,99.5714
3614.9114,99.5801
3615.8755,99.6137
3616.8398,99.657
3617.8040,99.7016
3618.7683,99.7454
3619.7324,99.7746
3620.6968,99.7609
3621.6609,99.6973
3622.6252,99.6201
3623.5894,99.5838
3624.5537,99.6199
3625.5178,99.7147
3626.4822,99.8214
3627.4463,99.908
3628.4106,99.9818
3629.3748,100.031
3630.3391,100.01
3631.3032,99.9244
3632.2676,99.8375
3633.2317,99.8021
3634.1960,99.8264
3635.1602,99.8819
3636.1245,99.9304
3637.0886,99.9477
3638.0530,99.9304
3639.0171,99.8868
3639.9814,99.8258
3640.9456,99.7543
3641.9099,99.6824
3642.8740,99.6261
3643.8384,99.5981
3644.8025,99.5881
3645.7668,99.5507
3646.7310,99.4374
3647.6953,99.2997
3648.6594,99.3128
3649.6238,99.5033
3650.5879,99.6644
3651.5522,99.6837
3652.5164,99.6193
3653.4807,99.5531
3654.4448,99.5138
3655.4092,99.4852
3656.3733,99.4421
3657.3376,99.3754
3658.3018,99.2986
3659.2661,99.2389
3660.2302,99.2167
3661.1946,99.229
3662.1587,99.2542
3663.1230,99.2728
3664.0872,99.2855
3665.0515,99.3064
3666.0156,99.3392
3666.9800,99.3607
3667.9441,99.339
3668.9084,99.2744
3669.8726,99.2035
3670.8369,99.1535
3671.8010,99.1246
3672.7654,99.1051
3673.7295,99.0843
3674.6938,99.0777
3675.6580,99.1218
3676.6223,99.2062
3677.5864,99.2721
3678.5508,99.2951
3679.5149,99.2945
3680.4792,99.2876
3681.4434,99.2732
3682.4077,99.2495
3683.3718,99.2284
3684.3362,99.2282
3685.3003,99.2469
3686.2646,99.2472
3687.2288,99.1824
3688.1931,99.0658
3689.1572,98.9908
3690.1216,99.018
3691.0857,99.1047
3692.0500,99.1899
3693.0142,99.2561
3693.9785,99.3106
3694.9426,99.3618
3695.9070,99.4152
3696.8711,99.4754
3697.8354,99.545
3698.7996,99.622
3699.7639,99.7008
3700.7280,99.7762
3701.6924,99.8421
3702.6565,99.8873
3703.6208,99.9025
3704.5850,99.8921
3705.5493,99.8709
3706.5134,99.8466
3707.4778,99.8118
3708.4419,99.7625
3709.4063,99.7405
3710.3704,99.833
3711.3347,100.061
3712.2988,100.306
3713.2632,100.437
3714.2273,100.437
3715.1917,100.364
3716.1558,100.275
3717.1201,100.19
3718.0842,100.103
3719.0486,100
3720.0127,99.8783
3720.9771,99.7539
3721.9412,99.6513
3722.9055,99.5899
3723.8696,99.5743
3724.8340,99.5913
3725.7981,99.6158
3726.7625,99.6285
3727.7266,99.6286
3728.6909,99.6282
3729.6550,99.6328
3730.6194,99.6312
3731.5835,99.623
3732.5479,99.5661
3733.5120,99.5105
3734.4763,99.5475
3735.4404,99.6899
3736.4048,99.8274
3737.3689,99.8745
3738.3333,99.8687
3739.2974,99.9107
3740.2617,100.072
3741.2258,100.345
3742.1902,100.634
3743.1543,100.802
3744.1187,100.76
3745.0828,100.534
3746.0471,100.228
3747.0112,99.9525
3747.9756,99.7728
3748.9397,99.713
3749.9041,99.7853
3750.8682,99.9617
3751.8325,100.116
3752.7966,100.131
3753.7610,100.027
3754.7251,99.8974
3755.6895,99.8124
3756.6536,99.789
3757.6179,99.8144
3758.5820,99.8666
3759.5464,99.9202
3760.5105,99.9551
3761.4749,99.9696
3762.4390,99.9768
3763.4033,99.9886
3764.3674,100.007
3765.3318,100.026
3766.2959,100.041
3767.2603,100.053
3768.2244,100.068
3769.1887,100.095
3770.1528,100.13
3771.1172,100.157
3772.0813,100.16
3773.0457,100.14
3774.0098,100.113
3774.9741,100.092
3775.9382,100.082
3776.9026,100.079
3777.8667,100.081
3778.8311,100.088
3779.7952,100.088
3780.7595,100.063
3781.7236,100.01
3782.6880,99.9463
3783.6521,99.8996
3784.6165,99.8932
3785.5806,99.9342
3786.5449,100.009
3787.5090,100.091
3788.4734,100.156
3789.4375,100.196
3790.4019,100.21
3791.3660,100.204
3792.3303,100.174
3793.2944,100.114
3794.2588,100.028
3795.2229,99.9343
3796.1873,99.8634
3797.1514,99.836
3798.1157,99.847
3799.0798,99.8695
3800.0442,99.8803
3801.0083,99.879
3801.9727,99.8783
3802.9368,99.8899
3803.9011,99.9283
3804.8652,100.006
3805.8296,100.114
3806.7937,100.214
3807.7581,100.259
3808.7222,100.227
3809.6865,100.154
3810.6506,100.108
3811.6150,100.129
3812.5791,100.2
3813.5435,100.255
3814.5076,100.226
3815.4719,100.103
3816.4360,99.9351
3817.4004,99.7866
3818.3645,99.7028
3819.3289,99.7011
3820.2930,99.7682
3821.2573,99.8516
3822.2214,99.8828
3823.1858,99.8372
3824.1499,99.7527
3825.1143,99.6882
3826.0784,99.6812
3827.0427,99.7339
3828.0068,99.8214
3828.9712,99.9095
3829.9353,99.9717
3830.8997,99.9994
3831.8638,100.001
3832.8281,99.9904
3833.7922,99.9762
3834.7566,99.9496
3835.7207,99.8915
3836.6851,99.7951
3837.6492,99.6869
3838.6135,99.6134
3839.5776,99.604
3840.5420,99.6565
3841.5061,99.7522
3842.4705,99.8634
3843.4346,99.9525
3844.3989,99.9832
3845.3630,99.9451
3846.3274,99.8698
3847.2915,99.8212
3848.2559,99.8642
3849.2200,100.029
3850.1843,100.283
3851.1484,100.542
3852.1128,100.736
3853.0769,100.862
3854.0413,100.87
3855.0054,100.688
3855.9697,100.383
3856.9338,100.098
3857.8982,99.9273
3858.8623,99.8789
3859.8267,99.8989
3860.7908,99.9143
3861.7551,99.8837
3862.7192,99.8281
3863.6836,99.8054
3864.6477,99.8488
3865.6121,99.9447
3866.5762,100.053
3867.5405,100.131
3868.5046,100.149
3869.4690,100.104
3870.4331,100.031
3871.3975,99.9698
3872.3616,99.94
3873.3259,99.9382
3874.2900,99.9559
3875.2544,99.9894
3876.2185,100.033
3877.1829,100.072
3878.1470,100.086
3879.1113,100.064
3880.0754,100.02
3881.0398,99.9926
3882.0039,100.011
3882.9683,100.081
3883.9324,100.178
3884.8967,100.262
3885.8608,100.294
3886.8252,100.263
3887.7893,100.19
3888.7537,100.107
3889.7178,100.038
3890.6821,99.9959
3891.6462,99.9851
3892.6106,99.9934
3893.5747,100.004
3894.5391,100.016
3895.5032,100.042
3896.4675,100.079
3897.4316,100.108
3898.3960,100.106
3899.3601,100.075
3900.3245,100.034
3901.2886,100.004
3902.2529,99.9946
3903.2170,100.007
3904.1814,100.032
3905.1455,100.048
3906.1099,100.048
3907.0740,100.038
3908.0383,100.033
3909.0024,100.038
3909.9668,100.051
3910.9309,100.065
3911.8953,100.074
3912.8594,100.08
3913.8237,100.081
3914.7878,100.079
3915.7522,100.074
3916.7163,100.07
3917.6807,100.064
3918.6448,100.048
3919.6091,100.012
3920.5732,99.9601
3921.5376,99.9045
3922.5017,99.8609
3923.4661,99.8382
3924.4302,99.8339
3925.3945,99.8341
3926.3586,99.8248
3927.3230,99.8026
3928.2871,99.7762
3929.2515,99.7597
3930.2156,99.7687
3931.1799,99.8127
3932.1440,99.8854
3933.1084,99.9636
3934.0725,100.023
3935.0369,100.053
3936.0010,100.055
3936.9653,100.039
3937.9294,100.008
3938.8938,99.9665
3939.8579,99.9219
3940.8223,99.8853
3941.7864,99.8694
3942.7507,99.8781
3943.7148,99.9015
3944.6792,99.9228
3945.6433,99.928
3946.6077,99.9128
3947.5718,99.8831
3948.5361,99.8531
3949.5002,99.8366
3950.4646,99.8384
3951.4287,99.8536
3952.3931,99.873
3953.3572,99.8896
3954.3215,99.8995
3955.2856,99.902
3956.2500,99.8989
3957.2141,99.8931
3958.1785,99.8882
3959.1426,99.8879
3960.1069,99.8953
3961.0710,99.9121
3962.0354,99.9366
3962.9995,99.963
3963.9639,99.9844
3964.9280,99.9949
3965.8923,99.9926
3966.8564,99.9791
3967.8208,99.9578
3968.7849,99.9327
3969.7493,99.9071
3970.7134,99.8839
3971.6777,99.8661
3972.6418,99.8566
3973.6062,99.8573
3974.5703,99.8677
3975.5347,99.8843
3976.4988,99.9025
3977.4631,99.9178
3978.4272,99.928
3979.3916,99.9325
3980.3557,99.9315
3981.3201,99.9258
3982.2842,99.9172
3983.2485,99.9081
3984.2126,99.9016
3985.1770,99.8999
3986.1411,99.9034
3987.1055,99.909
3988.0696,99.911
3989.0339,99.9036
3989.9980,99.8839
3990.9624,99.8549
3991.9265,99.8256
3992.8909,99.8066
3993.8550,99.8056
3994.8193,99.8222
3995.7834,99.848
3996.7478,99.8707
3997.7119,99.8807
3998.6763,99.876
3999.6404,99.8626
4000.6047,99.677

##### Extended Information
[Comments]
Sample name
Comment
User
Division
Company,HANKYONG

[Detailed Information]
Creation date,4/24/2024 11:19 AM

Data array type,Linear data array
Horizontal axis,Wavenumber [cm-1]
Vertical axis,%T
Start,649.893 cm-1
End,4000.6 cm-1
Data interval,0.964233 cm-1
Data points,3476    

[Measurement Information]
Model Name,FT/IR-4700typeA
Serial Number,D056761788

Accessory,ATR PRO ONE
Accessory S/N,C174761809
Incident angle,45 deg

Measurement Date,4/24/2024 11:17 AM

Light Source,Standard
Detector,TGS
Accumulation,32
Resolution,4 cm-1
Zero Filling,On
Apodization,Cosine
Gain,Auto (4)
Aperture,Auto (7.1 mm)
Scanning Speed,Auto (2 mm/sec)
Filter,Auto (30000 Hz)

