TITLE,
DATA TYPE,INFRARED SPECTRUM
ORIGIN,JASCO
OWNER,
DATE,24/04/24
TIME,11:48:07
SPECTROMETER/DATA SYSTEM,
LOCALE,1033
RESOLUTION,
DELTAX,0.964233
XUNITS,1/CM
YUNITS,TRANSMITTANCE
FIRSTX,  649.8934
LASTX, 4000.6047
NPOINTS,    3476
FIRSTY,    98.73007
MAXY,   101.25423
MINY,    57.38349
XYDATA
649.8934,98.7301
650.8576,98.5081
651.8218,98.3276
652.7861,98.2009
653.7503,98.1232
654.7145,98.0838
655.6788,98.0605
656.6430,98.0235
657.6072,97.9503
658.5715,97.8432
659.5357,97.7358
660.4999,97.6744
661.4642,97.6801
662.4284,97.72
663.3926,97.7137
664.3569,97.5563
665.3211,97.1355
666.2853,96.3675
667.2496,95.328
668.2138,94.4342
669.1780,94.2034
670.1423,94.6204
671.1065,95.2545
672.0707,95.7857
673.0350,96.1057
673.9992,96.2184
674.9634,96.1783
675.9277,96.0681
676.8919,95.9737
677.8561,95.9541
678.8204,96.0284
679.7846,96.185
680.7488,96.3962
681.7131,96.6286
682.6773,96.8519
683.6415,97.05
684.6058,97.2278
685.5700,97.4043
686.5342,97.5957
687.4985,97.7977
688.4627,97.9789
689.4269,98.0927
690.3912,98.1014
691.3554,98.0097
692.3196,97.8896
693.2839,97.8604
694.2481,97.9993
695.2123,98.2746
696.1766,98.5926
697.1408,98.8721
698.1050,99.0689
699.0693,99.1712
700.0335,99.1904
700.9977,99.1515
701.9620,99.0821
702.9262,99.0068
703.8904,98.9476
704.8547,98.9227
705.8189,98.9414
706.7831,98.9976
707.7474,99.0692
708.7116,99.1258
709.6758,99.1416
710.6401,99.1039
711.6043,99.0129
712.5685,98.8741
713.5328,98.69
714.4970,98.4573
715.4612,98.3742
716.4255,98.0378
717.3897,97.7046
718.3539,97.4368
719.3182,97.2998
720.2824,97.3303
721.2466,97.513
722.2109,97.7846
723.1751,98.0636
724.1393,98.2836
725.1036,98.4108
726.0678,98.4447
727.0320,98.4092
727.9963,98.3399
728.9605,98.2703
729.9247,98.2201
730.8890,98.1893
731.8532,98.1582
732.8174,98.0945
733.7817,97.9626
734.7459,97.7347
735.7101,97.3979
736.6744,96.9569
737.6386,96.4319
738.6028,95.8547
739.5671,95.2631
740.5313,94.6942
741.4955,94.1787
742.4598,93.7363
743.4240,93.3747
744.3882,93.0936
745.3525,92.8888
746.3167,92.7577
747.2809,92.6988
748.2452,92.7101
749.2094,92.785
750.1736,92.9105
751.1379,93.0695
752.1021,93.2443
753.0663,93.4209
754.0306,93.5908
754.9948,93.7493
755.9590,93.8931
756.9233,94.0168
757.8875,94.1131
758.8517,94.1742
759.8160,94.196
760.7802,94.1808
761.7444,94.1385
762.7087,94.0847
763.6729,94.0377
764.6371,94.016
765.6014,94.0373
766.5656,94.1172
767.5298,94.2665
768.4941,94.4874
769.4583,94.7691
770.4225,95.0867
771.3868,95.4052
772.3510,95.6884
773.3152,95.9077
774.2795,96.0479
775.2437,96.1076
776.2079,96.0953
777.1722,96.0232
778.1364,95.9026
779.1006,95.7411
780.0649,95.5445
781.0291,95.3196
781.9933,95.0782
782.9576,94.8376
783.9218,94.6175
784.8860,94.432
785.8503,94.2834
786.8145,94.1596
787.7787,94.04
788.7430,93.9062
789.7072,93.7524
790.6714,93.5886
791.6357,93.4349
792.5999,93.3094
793.5641,93.2195
794.5284,93.158
795.4926,93.1089
796.4568,93.0554
797.4211,92.9865
798.3853,92.8981
799.3495,92.7905
800.3138,92.6634
801.2780,92.5143
802.2422,92.3387
803.2065,92.133
804.1707,91.8977
805.1349,91.6393
806.0992,91.3693
807.0634,91.1016
808.0276,90.8478
808.9919,90.6131
809.9561,90.396
810.9203,90.1913
811.8846,89.9953
812.8488,89.8112
813.8130,89.6492
814.7773,89.5229
815.7415,89.4432
816.7057,89.4137
817.6700,89.4291
818.6342,89.4788
819.5984,89.5503
820.5627,89.6331
821.5269,89.7198
822.4911,89.8062
823.4554,89.8907
824.4196,89.9738
825.3839,90.0574
826.3481,90.1432
827.3123,90.2306
828.2766,90.3152
829.2408,90.3876
830.2050,90.4357
831.1693,90.4465
832.1335,90.4107
833.0977,90.3242
834.0620,90.1904
835.0262,90.0185
835.9904,89.8215
836.9547,89.6117
837.9189,89.3975
838.8831,89.1816
839.8474,88.9614
840.8116,88.7319
841.7758,88.4892
842.7401,88.2339
843.7043,87.9715
844.6685,87.7109
845.6328,87.4616
846.5970,87.2306
847.5612,87.0216
848.5255,86.8366
849.4897,86.6784
850.4539,86.5524
851.4182,86.4639
852.3824,86.4148
853.3466,86.3994
854.3109,86.4041
855.2751,86.4131
856.2393,86.4157
857.2036,86.4121
858.1678,86.4133
859.1320,86.4349
860.0963,86.4883
861.0605,86.5756
862.0247,86.6903
862.9890,86.8229
863.9532,86.9671
864.9174,87.1225
865.8817,87.2915
866.8459,87.4751
867.8101,87.6697
868.7744,87.8681
869.7386,88.0631
870.7028,88.2503
871.6671,88.4281
872.6313,88.5938
873.5955,88.7397
874.5598,88.8535
875.5240,88.9228
876.4882,88.9425
877.4525,88.9194
878.4167,88.8719
879.3809,88.8222
880.3452,88.7874
881.3094,88.7734
882.2736,88.7747
883.2379,88.7811
884.2021,88.7852
885.1663,88.7871
886.1306,88.7952
887.0948,88.8221
888.0590,88.8797
889.0233,88.9755
889.9875,89.1104
890.9517,89.2791
891.9160,89.4723
892.8802,89.6789
893.8444,89.8893
894.8087,90.0965
895.7729,90.2958
896.7371,90.4828
897.7014,90.6523
898.6656,90.799
899.6298,90.9198
900.5941,91.016
901.5583,91.0935
902.5225,91.1592
903.4868,91.2174
904.4510,91.2676
905.4152,91.3048
906.3795,91.3222
907.3437,91.3139
908.3079,91.2771
909.2722,91.2123
910.2364,91.124
911.2006,91.0216
912.1649,90.9178
913.1291,90.8268
914.0933,90.7603
915.0576,90.725
916.0218,90.7222
916.9860,90.7504
917.9503,90.8083
918.9145,90.8961
919.8787,91.0154
920.8430,91.1668
921.8072,91.349
922.7714,91.5585
923.7357,91.7906
924.6999,92.0398
925.6641,92.3006
926.6284,92.5675
927.5926,92.8377
928.5568,93.113
929.5211,93.4017
930.4853,93.7176
931.4495,94.0758
932.4138,94.4885
933.3780,94.9607
934.3422,95.4878
935.3065,96.0563
936.2707,96.6454
937.2349,97.2305
938.1992,97.7878
939.1634,98.2988
940.1276,98.7541
941.0919,99.1533
942.0561,99.5023
943.0203,99.8073
943.9846,100.071
944.9488,100.29
945.9130,100.458
946.8773,100.572
947.8415,100.633
948.8057,100.644
949.7700,100.616
950.7342,100.555
951.6984,100.469
952.6627,100.36
953.6269,100.228
954.5911,100.071
955.5554,99.8826
956.5196,99.6575
957.4838,99.3902
958.4481,99.0787
959.4123,98.7255
960.3765,98.36
961.3408,98.0609
962.3050,97.7428
963.2692,97.414
964.2335,97.0828
965.1977,96.758
966.1619,96.4486
967.1262,96.1622
968.0904,95.9032
969.0546,95.671
970.0189,95.4616
970.9831,95.269
971.9473,95.0876
972.9116,94.9143
973.8758,94.748
974.8400,94.5884
975.8043,94.4327
976.7685,94.2744
977.7327,94.1019
978.6970,93.9008
979.6612,93.6576
980.6254,93.3638
981.5897,93.0188
982.5539,92.6295
983.5181,92.2081
984.4824,91.7678
985.4466,91.3206
986.4108,90.8769
987.3751,90.4465
988.3393,90.0405
989.3035,89.6706
990.2678,89.3473
991.2320,89.0769
992.1962,88.8591
993.1605,88.6879
994.1247,88.5532
995.0889,88.4446
996.0532,88.3533
997.0174,88.2726
997.9816,88.1961
998.9459,88.1158
999.9101,88.0211
1000.8743,87.8989
1001.8386,87.7356
1002.8028,87.5184
1003.7670,87.2362
1004.7313,86.8799
1005.6955,86.4412
1006.6597,85.9134
1007.6240,85.2917
1008.5882,84.5744
1009.5524,83.7639
1010.5167,82.8663
1011.4809,81.8903
1012.4451,80.8451
1013.4094,79.7383
1014.3736,78.5743
1015.3378,77.355
1016.3021,76.0826
1017.2663,74.7636
1018.2305,73.4103
1019.1948,72.0386
1020.1590,70.6626
1021.1232,69.2898
1022.0875,67.921
1023.0517,66.557
1024.0160,65.2087
1024.9802,63.9021
1025.9445,62.6755
1026.9087,61.5672
1027.8729,60.602
1028.8372,59.7844
1029.8014,59.1021
1030.7656,58.5376
1031.7299,58.0798
1032.6941,57.7292
1033.6583,57.4942
1034.6226,57.3835
1035.5868,57.3985
1036.5510,57.5306
1037.5153,57.7621
1038.4795,58.0696
1039.4437,58.4276
1040.4080,58.8123
1041.3722,59.2051
1042.3364,59.5958
1043.3007,59.9836
1044.2649,60.3756
1045.2291,60.7829
1046.1934,61.2165
1047.1576,61.6854
1048.1218,62.1962
1049.0861,62.7537
1050.0503,63.3621
1051.0145,64.023
1051.9788,64.7354
1052.9430,65.4951
1053.9072,66.2982
1054.8715,67.1431
1055.8357,68.0316
1056.7999,68.963
1057.7642,69.9257
1058.7284,70.8877
1059.6926,71.7969
1060.6569,72.5935
1061.6211,73.2324
1062.5853,73.7052
1063.5496,74.049
1064.5138,74.3331
1065.4780,74.6283
1066.4423,74.9739
1067.4065,75.3605
1068.3707,75.7366
1069.3350,76.0357
1070.2992,76.2072
1071.2634,76.2344
1072.2277,76.1334
1073.1919,75.9372
1074.1561,75.6775
1075.1204,75.3749
1076.0846,75.0391
1077.0488,74.6752
1078.0131,74.2898
1078.9773,73.8932
1079.9415,73.4969
1080.9058,73.1122
1081.8700,72.7478
1082.8342,72.4105
1083.7985,72.1052
1084.7627,71.8354
1085.7269,71.6042
1086.6912,71.4136
1087.6554,71.2645
1088.6196,71.1541
1089.5839,71.0739
1090.5481,71.0098
1091.5123,70.9452
1092.4766,70.8664
1093.4408,70.7689
1094.4050,70.6587
1095.3693,70.5492
1096.3335,70.4549
1097.2977,70.3858
1098.2620,70.3449
1099.2262,70.3307
1100.1904,70.3408
1101.1547,70.3752
1102.1189,70.436
1103.0831,70.5263
1104.0474,70.6493
1105.0116,70.8091
1105.9758,71.0128
1106.9401,71.2715
1107.9043,71.5987
1108.8685,72.0077
1109.8328,72.5077
1110.7970,73.1027
1111.7612,73.7918
1112.7255,74.57
1113.6897,75.429
1114.6539,76.3576
1115.6182,77.343
1116.5824,78.3738
1117.5466,79.444
1118.5109,80.5555
1119.4751,81.7175
1120.4393,82.9403
1121.4036,84.2284
1122.3678,85.5759
1123.3320,86.9656
1124.2963,88.3734
1125.2605,89.7738
1126.2247,91.1435
1127.1890,92.4618
1128.1532,93.7092
1129.1174,94.8663
1130.0817,95.9144
1131.0459,96.8371
1132.0101,97.6226
1132.9744,98.2635
1133.9386,98.7558
1134.9028,99.098
1135.8671,99.2904
1136.8313,99.3121
1137.7955,99.1161
1138.7598,98.7927
1139.7240,98.3549
1140.6882,97.8156
1141.6525,97.187
1142.6167,96.4821
1143.5809,95.7169
1144.5452,94.913
1145.5094,94.0967
1146.4736,93.2976
1147.4379,92.5448
1148.4021,91.8641
1149.3663,91.2759
1150.3306,90.794
1151.2948,90.4242
1152.2590,90.1632
1153.2233,89.9965
1154.1875,89.8993
1155.1517,89.8393
1156.1160,89.782
1157.0802,89.6966
1158.0444,89.5602
1159.0087,89.3588
1159.9729,89.0866
1160.9371,88.7433
1161.9014,88.3322
1162.8656,87.8599
1163.8298,87.3362
1164.7941,86.773
1165.7583,86.1836
1166.7225,85.5798
1167.6868,84.9709
1168.6510,84.364
1169.6152,83.7641
1170.5795,83.1764
1171.5437,82.6054
1172.5079,82.0541
1173.4722,81.5227
1174.4364,81.0068
1175.4006,80.499
1176.3649,79.9907
1177.3291,79.4756
1178.2933,78.9508
1179.2576,78.417
1180.2218,77.8767
1181.1860,77.3323
1182.1503,76.7857
1183.1145,76.2392
1184.0787,75.6964
1185.0430,75.1625
1186.0072,74.6424
1186.9714,74.1382
1187.9357,73.6477
1188.8999,73.1658
1189.8641,72.6868
1190.8284,72.2079
1191.7926,71.7302
1192.7568,71.258
1193.7211,70.7971
1194.6853,70.353
1195.6495,69.9304
1196.6138,69.5332
1197.5780,69.1645
1198.5422,68.8252
1199.5065,68.5455
1200.4707,68.2562
1201.4349,67.9893
1202.3992,67.7442
1203.3634,67.5239
1204.3276,67.3339
1205.2919,67.1798
1206.2561,67.0649
1207.2203,66.9896
1208.1846,66.9517
1209.1488,66.9487
1210.1130,66.9796
1211.0773,67.0443
1212.0415,67.1431
1213.0057,67.2758
1213.9700,67.4409
1214.9342,67.6362
1215.8984,67.8594
1216.8627,68.1082
1217.8269,68.3794
1218.7911,68.668
1219.7554,68.9674
1220.7196,69.2708
1221.6838,69.5726
1222.6481,69.8689
1223.6123,70.1566
1224.5765,70.4319
1225.5408,70.6894
1226.5050,70.9221
1227.4692,71.1232
1228.4335,71.2878
1229.3977,71.4146
1230.3619,71.5071
1231.3262,71.5736
1232.2904,71.6268
1233.2546,71.6819
1234.2189,71.7518
1235.1831,71.8435
1236.1473,71.9566
1237.1116,72.0856
1238.0758,72.226
1239.0400,72.3799
1240.0043,72.5564
1240.9685,72.765
1241.9327,73.0071
1242.8970,73.2699
1243.8612,73.5283
1244.8254,73.7545
1245.7897,73.9296
1246.7539,74.0485
1247.7181,74.1182
1248.6824,74.1488
1249.6466,74.1465
1250.6108,74.111
1251.5751,74.0373
1252.5393,73.9211
1253.5035,73.7615
1254.4678,73.5621
1255.4320,73.3303
1256.3962,73.0761
1257.3605,72.8137
1258.3247,72.5607
1259.2889,72.3372
1260.2532,72.1615
1261.2174,72.0451
1262.1816,71.9908
1263.1459,71.9927
1264.1101,72.0395
1265.0743,72.1179
1266.0386,72.2151
1267.0028,72.3207
1267.9670,72.4283
1268.9313,72.5364
1269.8955,72.6485
1270.8597,72.7713
1271.8240,72.9129
1272.7882,73.0802
1273.7524,73.2782
1274.7167,73.5091
1275.6809,73.7727
1276.6451,74.065
1277.6094,74.379
1278.5736,74.7043
1279.5378,75.0293
1280.5021,75.3443
1281.4663,75.6438
1282.4305,75.9268
1283.3948,76.1966
1284.3590,76.4584
1285.3232,76.7179
1286.2875,76.9805
1287.2517,77.2498
1288.2159,77.5277
1289.1802,77.813
1290.1444,78.1025
1291.1086,78.392
1292.0729,78.679
1293.0371,78.964
1294.0013,79.2497
1294.9656,79.5388
1295.9298,79.8316
1296.8940,80.1244
1297.8583,80.41
1298.8225,80.6801
1299.7867,80.9272
1300.7510,81.1466
1301.7152,81.3361
1302.6794,81.497
1303.6437,81.6341
1304.6079,81.7536
1305.5721,81.8616
1306.5364,81.961
1307.5006,82.0507
1308.4648,82.127
1309.4291,82.1869
1310.3933,82.2314
1311.3575,82.2657
1312.3218,82.2969
1313.2860,82.3303
1314.2502,82.3669
1315.2145,82.4053
1316.1787,82.4446
1317.1429,82.4877
1318.1072,82.5394
1319.0714,82.6022
1320.0356,82.673
1320.9999,82.743
1321.9641,82.803
1322.9283,82.8474
1323.8926,82.8768
1324.8568,82.8956
1325.8210,82.9103
1326.7853,82.9266
1327.7495,82.9492
1328.7137,82.9827
1329.6780,83.0311
1330.6422,83.0967
1331.6064,83.1767
1332.5707,83.261
1333.5349,83.3341
1334.4991,83.3812
1335.4634,83.3962
1336.4276,83.389
1337.3918,83.3896
1338.3561,83.4386
1339.3203,83.5614
1340.2845,83.7423
1341.2488,83.9323
1342.2130,84.0837
1343.1772,84.1734
1344.1415,84.2012
1345.1057,84.1789
1346.0699,84.1217
1347.0342,84.0444
1347.9984,83.9591
1348.9626,83.8723
1349.9269,83.7844
1350.8911,83.6919
1351.8553,83.5923
1352.8196,83.4886
1353.7838,83.3904
1354.7480,83.3087
1355.7123,83.2477
1356.6765,83.2007
1357.6407,83.1548
1358.6050,83.1013
1359.5692,83.0459
1360.5334,83.0138
1361.4977,83.0428
1362.4619,83.1541
1363.4261,83.326
1364.3904,83.51
1365.3546,83.672
1366.3188,83.8079
1367.2831,83.9292
1368.2473,84.0431
1369.2115,84.1441
1370.1758,84.2195
1371.1400,84.2621
1372.1042,84.2818
1373.0685,84.3074
1374.0327,84.3731
1374.9969,84.493
1375.9612,84.6505
1376.9254,84.8185
1377.8896,84.9868
1378.8539,85.1646
1379.8181,85.3638
1380.7823,85.5837
1381.7466,85.809
1382.7108,86.0236
1383.6750,86.2255
1384.6393,86.4316
1385.6035,86.6677
1386.5677,86.9435
1387.5320,87.2236
1388.4962,87.4355
1389.4604,87.5244
1390.4247,87.4888
1391.3889,87.3648
1392.3531,87.2
1393.3174,87.0439
1394.2816,86.9453
1395.2458,86.9342
1396.2101,86.9991
1397.1743,87.0884
1398.1385,87.1436
1399.1028,87.1288
1400.0670,87.0369
1401.0313,86.8809
1401.9955,86.6826
1402.9597,86.4662
1403.9240,86.2564
1404.8882,86.0736
1405.8524,85.9251
1406.8167,85.8009
1407.7809,85.6841
1408.7451,85.5651
1409.7094,85.4428
1410.6736,85.3177
1411.6378,85.1849
1412.6021,85.0361
1413.5663,84.8651
1414.5305,84.6706
1415.4948,84.4504
1416.4590,84.2004
1417.4232,83.9287
1418.3875,83.6642
1419.3517,83.4229
1420.3159,83.1786
1421.2802,82.9004
1422.2444,82.5898
1423.2086,82.2711
1424.1729,81.9685
1425.1371,81.6949
1426.1013,81.4495
1427.0656,81.2243
1428.0298,81.0122
1428.9940,80.8148
1429.9583,80.6421
1430.9225,80.5025
1431.8867,80.3955
1432.8510,80.3112
1433.8152,80.2302
1434.7794,80.1264
1435.7437,79.9822
1436.7079,79.799
1437.6721,79.5791
1438.6364,79.3161
1439.6006,79.0154
1440.5648,78.6989
1441.5291,78.3868
1442.4933,78.0866
1443.4575,77.7944
1444.4218,77.502
1445.3860,77.2023
1446.3502,76.8943
1447.3145,76.5842
1448.2787,76.2807
1449.2429,75.9881
1450.2072,75.7084
1451.1714,75.4502
1452.1356,75.2284
1453.0999,75.0476
1454.0641,74.8848
1455.0283,74.6985
1455.9926,74.5031
1456.9568,74.4317
1457.9210,74.5333
1458.8853,74.6283
1459.8495,74.6074
1460.8137,74.535
1461.7780,74.5238
1462.7422,74.6762
1463.7064,75.0795
1464.6707,75.7589
1465.6349,76.6066
1466.5991,77.4397
1467.5634,78.1612
1468.5276,78.8013
1469.4918,79.444
1470.4561,80.1699
1471.4203,81.0438
1472.3845,82.084
1473.3488,83.1719
1474.3130,84.0684
1475.2772,84.6249
1476.2415,84.8708
1477.2057,84.9091
1478.1699,84.8348
1479.1342,84.725
1480.0984,84.6495
1481.0626,84.6646
1482.0269,84.7931
1482.9911,85.0138
1483.9553,85.2751
1484.9196,85.5193
1485.8838,85.6987
1486.8480,85.7865
1487.8123,85.8024
1488.7765,85.8239
1489.7407,85.9045
1490.7050,85.99
1491.6692,85.9979
1492.6334,85.9092
1493.5977,85.7383
1494.5619,85.481
1495.5261,85.1059
1496.4904,84.5954
1497.4546,83.991
1498.4188,83.3687
1499.3831,82.7774
1500.3473,82.2453
1501.3115,81.8087
1502.2758,81.497
1503.2400,81.2957
1504.2042,81.1138
1505.1685,80.7885
1506.1327,80.2344
1507.0969,79.6904
1508.0612,79.4223
1509.0254,79.2692
1509.9896,79.0435
1510.9539,78.7458
1511.9181,78.4401
1512.8823,78.1966
1513.8466,78.1013
1514.8108,78.2549
1515.7750,78.7275
1516.7393,79.5077
1517.7035,80.5287
1518.6677,81.762
1519.6320,83.2573
1520.5962,85.0394
1521.5604,86.9551
1522.5247,88.716
1523.4889,90.1481
1524.4531,91.3148
1525.4174,92.3835
1526.3816,93.4395
1527.3458,94.4323
1528.3101,95.2675
1529.2743,95.9129
1530.2385,96.42
1531.2028,96.8837
1532.1670,97.3895
1533.1312,97.9532
1534.0955,98.499
1535.0597,98.9426
1536.0239,99.2775
1536.9882,99.5339
1537.9524,99.6838
1538.9166,99.6296
1539.8809,99.3908
1540.8451,99.3073
1541.8093,99.6104
1542.7736,100.063
1543.7378,100.44
1544.7020,100.699
1545.6663,100.853
1546.6305,100.911
1547.5947,100.89
1548.5590,100.822
1549.5232,100.733
1550.4874,100.633
1551.4517,100.513
1552.4159,100.373
1553.3801,100.235
1554.3444,100.159
1555.3086,100.135
1556.2728,100.111
1557.2371,100.026
1558.2013,99.9742
1559.1655,100.047
1560.1298,99.9647
1561.0940,99.5557
1562.0582,98.9824
1563.0225,98.4353
1563.9867,98.0013
1564.9509,97.6803
1565.9152,97.42
1566.8794,97.1463
1567.8436,96.8003
1568.8079,96.3771
1569.7721,95.9245
1570.7363,95.4969
1571.7006,95.1208
1572.6648,94.7861
1573.6290,94.4346
1574.5933,93.9751
1575.5575,93.3655
1576.5217,92.6926
1577.4860,92.0796
1578.4502,91.5438
1579.4144,91.0388
1580.3787,90.5293
1581.3429,89.9936
1582.3071,89.4181
1583.2714,88.8045
1584.2356,88.168
1585.1998,87.5224
1586.1641,86.8704
1587.1283,86.2095
1588.0925,85.543
1589.0568,84.8832
1590.0210,84.2435
1590.9852,83.6321
1591.9495,83.0528
1592.9137,82.5141
1593.8779,82.0323
1594.8422,81.6251
1595.8064,81.2977
1596.7706,81.0388
1597.7349,80.8277
1598.6991,80.6476
1599.6633,80.4923
1600.6276,80.3661
1601.5918,80.2779
1602.5560,80.2322
1603.5203,80.2238
1604.4845,80.24
1605.4487,80.2711
1606.4130,80.3201
1607.3772,80.4041
1608.3414,80.5425
1609.3057,80.7359
1610.2699,80.9586
1611.2341,81.1835
1612.1984,81.4091
1613.1626,81.6648
1614.1268,82.0023
1615.0911,82.4872
1616.0553,83.1477
1617.0195,83.8753
1617.9838,84.4742
1618.9480,84.8707
1619.9122,85.1581
1620.8765,85.4731
1621.8407,85.9033
1622.8049,86.4552
1623.7692,87.0584
1624.7334,87.6212
1625.6976,88.1102
1626.6619,88.5615
1627.6261,89.0175
1628.5903,89.474
1629.5546,89.8938
1630.5188,90.2592
1631.4830,90.5898
1632.4473,90.9108
1633.4115,91.2195
1634.3757,91.5058
1635.3400,91.8105
1636.3042,92.1659
1637.2684,92.478
1638.2327,92.6556
1639.1969,92.7327
1640.1611,92.7903
1641.1254,92.881
1642.0896,93.0141
1643.0538,93.1577
1644.0181,93.2413
1644.9823,93.1958
1645.9465,93.046
1646.9108,92.9293
1647.8750,92.9455
1648.8392,93.0989
1649.8035,93.3717
1650.7677,93.7104
1651.7319,93.9901
1652.6962,94.1136
1653.6604,94.1038
1654.6246,93.9145
1655.5889,93.5099
1656.5531,93.037
1657.5173,92.6545
1658.4816,92.4159
1659.4458,92.2814
1660.4100,92.1708
1661.3743,92.0276
1662.3385,91.8517
1663.3027,91.6698
1664.2670,91.4976
1665.2312,91.3383
1666.1954,91.1793
1667.1597,90.984
1668.1239,90.7179
1669.0881,90.4062
1670.0524,90.1363
1671.0166,89.9663
1671.9808,89.881
1672.9451,89.8375
1673.9093,89.7904
1674.8735,89.6856
1675.8378,89.4727
1676.8020,89.1427
1677.7662,88.7501
1678.7305,88.3887
1679.6947,88.1346
1680.6589,87.9988
1681.6232,87.9159
1682.5874,87.7918
1683.5516,87.5986
1684.5159,87.363
1685.4801,87.0536
1686.4443,86.6474
1687.4086,86.2007
1688.3728,85.7898
1689.3370,85.4609
1690.3013,85.226
1691.2655,85.0694
1692.2297,84.9504
1693.1940,84.8072
1694.1582,84.5739
1695.1224,84.2208
1696.0867,83.8036
1697.0509,83.464
1698.0151,83.3302
1698.9794,83.3773
1699.9436,83.422
1700.9078,83.2952
1701.8721,82.9856
1702.8363,82.6092
1703.8005,82.3032
1704.7648,82.1544
1705.7290,82.1753
1706.6932,82.3097
1707.6575,82.4722
1708.6217,82.6063
1709.5859,82.7108
1710.5502,82.8159
1711.5144,82.9469
1712.4786,83.1067
1713.4429,83.2842
1714.4071,83.4886
1715.3713,83.8007
1716.3356,84.3587
1717.2998,85.1508
1718.2640,85.8954
1719.2283,86.3589
1720.1925,86.5788
1721.1567,86.7214
1722.1210,86.9178
1723.0852,87.2134
1724.0494,87.5817
1725.0137,87.9608
1725.9779,88.2964
1726.9421,88.5703
1727.9064,88.802
1728.8706,89.0311
1729.8348,89.2962
1730.7991,89.6267
1731.7633,90.0476
1732.7275,90.5734
1733.6918,91.144
1734.6560,91.5962
1735.6202,91.8211
1736.5845,91.8832
1737.5487,91.9261
1738.5129,92.0496
1739.4772,92.2702
1740.4414,92.5393
1741.4056,92.7876
1742.3699,92.973
1743.3341,93.1026
1744.2983,93.2135
1745.2626,93.34
1746.2268,93.5018
1747.1910,93.7171
1748.1553,94.0203
1749.1195,94.4404
1750.0837,94.9341
1751.0480,95.3762
1752.0122,95.6673
1752.9764,95.8114
1753.9407,95.8798
1754.9049,95.9435
1755.8691,96.0383
1756.8334,96.1659
1757.7976,96.312
1758.7618,96.4654
1759.7261,96.6279
1760.6903,96.8064
1761.6545,96.9972
1762.6188,97.1806
1763.5830,97.336
1764.5472,97.4622
1765.5115,97.5765
1766.4757,97.6943
1767.4399,97.8139
1768.4042,97.9184
1769.3684,97.9946
1770.3326,98.059
1771.2969,98.1646
1772.2611,98.3497
1773.2253,98.5747
1774.1896,98.7573
1775.1538,98.8673
1776.1180,98.9412
1777.0823,99.0305
1778.0465,99.161
1779.0107,99.3284
1779.9750,99.5143
1780.9392,99.7021
1781.9034,99.8829
1782.8677,100.051
1783.8319,100.195
1784.7961,100.299
1785.7604,100.356
1786.7246,100.379
1787.6888,100.396
1788.6531,100.429
1789.6173,100.475
1790.5815,100.511
1791.5458,100.532
1792.5100,100.545
1793.4742,100.544
1794.4385,100.516
1795.4027,100.477
1796.3669,100.462
1797.3312,100.491
1798.2954,100.554
1799.2596,100.632
1800.2239,100.706
1801.1881,100.769
1802.1523,100.815
1803.1166,100.841
1804.0808,100.849
1805.0450,100.844
1806.0093,100.83
1806.9735,100.808
1807.9377,100.778
1808.9020,100.751
1809.8662,100.739
1810.8304,100.754
1811.7947,100.792
1812.7589,100.837
1813.7231,100.879
1814.6874,100.913
1815.6516,100.937
1816.6158,100.951
1817.5801,100.951
1818.5443,100.939
1819.5085,100.922
1820.4728,100.907
1821.4370,100.901
1822.4012,100.902
1823.3655,100.901
1824.3297,100.888
1825.2939,100.856
1826.2582,100.805
1827.2224,100.746
1828.1866,100.7
1829.1509,100.691
1830.1151,100.719
1831.0793,100.754
1832.0436,100.76
1833.0078,100.731
1833.9720,100.683
1834.9363,100.638
1835.9005,100.602
1836.8647,100.573
1837.8290,100.551
1838.7932,100.543
1839.7574,100.561
1840.7217,100.607
1841.6859,100.661
1842.6501,100.69
1843.6144,100.674
1844.5786,100.623
1845.5428,100.55
1846.5071,100.469
1847.4713,100.399
1848.4355,100.361
1849.3998,100.356
1850.3640,100.37
1851.3282,100.382
1852.2925,100.378
1853.2567,100.358
1854.2209,100.326
1855.1852,100.291
1856.1494,100.253
1857.1136,100.214
1858.0779,100.177
1859.0421,100.144
1860.0063,100.126
1860.9706,100.129
1861.9348,100.121
1862.8990,100.097
1863.8633,100.057
1864.8275,100.004
1865.7917,99.9464
1866.7560,99.8997
1867.7202,99.8972
1868.6844,99.9625
1869.6487,100.07
1870.6129,100.164
1871.5771,100.212
1872.5414,100.224
1873.5056,100.225
1874.4698,100.228
1875.4341,100.235
1876.3983,100.241
1877.3625,100.244
1878.3268,100.246
1879.2910,100.249
1880.2552,100.251
1881.2195,100.25
1882.1837,100.243
1883.1479,100.231
1884.1122,100.217
1885.0764,100.207
1886.0406,100.206
1887.0049,100.213
1887.9691,100.225
1888.9333,100.238
1889.8976,100.246
1890.8618,100.243
1891.8260,100.227
1892.7903,100.204
1893.7545,100.187
1894.7188,100.184
1895.6830,100.199
1896.6472,100.226
1897.6115,100.255
1898.5757,100.276
1899.5399,100.285
1900.5042,100.282
1901.4684,100.273
1902.4326,100.26
1903.3969,100.244
1904.3611,100.222
1905.3253,100.191
1906.2896,100.154
1907.2538,100.118
1908.2180,100.095
1909.1823,100.094
1910.1465,100.113
1911.1107,100.142
1912.0750,100.17
1913.0392,100.194
1914.0034,100.219
1914.9677,100.245
1915.9319,100.268
1916.8961,100.279
1917.8604,100.266
1918.8246,100.226
1919.7888,100.166
1920.7531,100.104
1921.7173,100.066
1922.6815,100.063
1923.6458,100.095
1924.6100,100.142
1925.5742,100.183
1926.5385,100.206
1927.5027,100.213
1928.4669,100.211
1929.4312,100.207
1930.3954,100.205
1931.3596,100.206
1932.3239,100.209
1933.2881,100.215
1934.2523,100.222
1935.2166,100.229
1936.1808,100.233
1937.1450,100.232
1938.1093,100.226
1939.0735,100.214
1940.0377,100.195
1941.0020,100.172
1941.9662,100.151
1942.9304,100.141
1943.8947,100.143
1944.8589,100.155
1945.8231,100.174
1946.7874,100.198
1947.7516,100.225
1948.7158,100.25
1949.6801,100.268
1950.6443,100.276
1951.6085,100.276
1952.5728,100.273
1953.5370,100.273
1954.5012,100.279
1955.4655,100.291
1956.4297,100.305
1957.3939,100.317
1958.3582,100.328
1959.3224,100.336
1960.2866,100.342
1961.2509,100.344
1962.2151,100.34
1963.1793,100.328
1964.1436,100.311
1965.1078,100.295
1966.0720,100.288
1967.0363,100.299
1968.0005,100.326
1968.9647,100.361
1969.9290,100.395
1970.8932,100.42
1971.8574,100.435
1972.8217,100.441
1973.7859,100.441
1974.7501,100.439
1975.7144,100.437
1976.6786,100.436
1977.6428,100.438
1978.6071,100.442
1979.5713,100.448
1980.5355,100.454
1981.4998,100.459
1982.4640,100.46
1983.4282,100.456
1984.3925,100.447
1985.3567,100.433
1986.3209,100.416
1987.2852,100.399
1988.2494,100.383
1989.2136,100.371
1990.1779,100.363
1991.1421,100.364
1992.1063,100.375
1993.0706,100.392
1994.0348,100.41
1994.9990,100.423
1995.9633,100.429
1996.9275,100.429
1997.8917,100.427
1998.8560,100.424
1999.8202,100.425
2000.7844,100.428
2001.7487,100.431
2002.7129,100.432
2003.6771,100.429
2004.6414,100.42
2005.6056,100.407
2006.5698,100.394
2007.5341,100.383
2008.4983,100.376
2009.4625,100.374
2010.4268,100.375
2011.3910,100.375
2012.3552,100.37
2013.3195,100.357
2014.2837,100.338
2015.2479,100.318
2016.2122,100.302
2017.1764,100.297
2018.1406,100.303
2019.1049,100.316
2020.0691,100.329
2021.0333,100.337
2021.9976,100.338
2022.9618,100.335
2023.9260,100.332
2024.8903,100.331
2025.8545,100.333
2026.8187,100.337
2027.7830,100.34
2028.7472,100.34
2029.7114,100.336
2030.6757,100.33
2031.6399,100.323
2032.6041,100.317
2033.5684,100.314
2034.5326,100.314
2035.4968,100.314
2036.4611,100.311
2037.4253,100.304
2038.3895,100.291
2039.3538,100.277
2040.3180,100.265
2041.2822,100.26
2042.2465,100.264
2043.2107,100.274
2044.1749,100.286
2045.1392,100.294
2046.1034,100.297
2047.0676,100.295
2048.0320,100.288
2048.9961,100.28
2049.9604,100.272
2050.9246,100.265
2051.8889,100.26
2052.8530,100.256
2053.8174,100.253
2054.7815,100.25
2055.7458,100.247
2056.7100,100.245
2057.6743,100.242
2058.6384,100.239
2059.6028,100.235
2060.5669,100.228
2061.5313,100.218
2062.4954,100.208
2063.4597,100.201
2064.4238,100.202
2065.3882,100.211
2066.3523,100.226
2067.3167,100.243
2068.2808,100.258
2069.2451,100.269
2070.2092,100.275
2071.1736,100.28
2072.1377,100.284
2073.1021,100.288
2074.0662,100.294
2075.0305,100.299
2075.9946,100.304
2076.9590,100.307
2077.9231,100.309
2078.8875,100.31
2079.8516,100.312
2080.8159,100.314
2081.7800,100.318
2082.7444,100.322
2083.7085,100.326
2084.6729,100.33
2085.6370,100.334
2086.6013,100.337
2087.5654,100.342
2088.5298,100.347
2089.4939,100.352
2090.4583,100.355
2091.4224,100.357
2092.3867,100.358
2093.3508,100.36
2094.3152,100.363
2095.2793,100.368
2096.2437,100.374
2097.2078,100.379
2098.1721,100.383
2099.1362,100.385
2100.1006,100.386
2101.0647,100.388
2102.0291,100.39
2102.9932,100.392
2103.9575,100.395
2104.9216,100.396
2105.8860,100.396
2106.8501,100.395
2107.8145,100.392
2108.7786,100.387
2109.7429,100.383
2110.7070,100.378
2111.6714,100.374
2112.6355,100.371
2113.5999,100.372
2114.5640,100.375
2115.5283,100.38
2116.4924,100.386
2117.4568,100.392
2118.4209,100.395
2119.3853,100.396
2120.3494,100.395
2121.3137,100.392
2122.2778,100.387
2123.2422,100.382
2124.2063,100.375
2125.1707,100.37
2126.1348,100.368
2127.0991,100.368
2128.0632,100.373
2129.0276,100.381
2129.9917,100.389
2130.9561,100.396
2131.9202,100.398
2132.8845,100.395
2133.8486,100.39
2134.8130,100.384
2135.7771,100.383
2136.7415,100.385
2137.7056,100.392
2138.6699,100.401
2139.6340,100.41
2140.5984,100.418
2141.5625,100.425
2142.5269,100.431
2143.4910,100.438
2144.4553,100.445
2145.4194,100.453
2146.3838,100.46
2147.3479,100.465
2148.3123,100.468
2149.2764,100.469
2150.2407,100.468
2151.2048,100.467
2152.1692,100.466
2153.1333,100.466
2154.0977,100.468
2155.0618,100.471
2156.0261,100.474
2156.9902,100.479
2157.9546,100.484
2158.9187,100.491
2159.8831,100.497
2160.8472,100.504
2161.8115,100.51
2162.7756,100.516
2163.7400,100.521
2164.7041,100.526
2165.6685,100.528
2166.6326,100.529
2167.5969,100.527
2168.5610,100.523
2169.5254,100.518
2170.4895,100.514
2171.4539,100.512
2172.4180,100.513
2173.3823,100.515
2174.3464,100.52
2175.3108,100.524
2176.2749,100.528
2177.2393,100.531
2178.2034,100.532
2179.1677,100.53
2180.1318,100.525
2181.0962,100.518
2182.0603,100.509
2183.0247,100.5
2183.9888,100.494
2184.9531,100.49
2185.9172,100.491
2186.8816,100.494
2187.8457,100.501
2188.8101,100.508
2189.7742,100.514
2190.7385,100.519
2191.7026,100.523
2192.6670,100.525
2193.6311,100.528
2194.5955,100.532
2195.5596,100.537
2196.5239,100.542
2197.4880,100.545
2198.4524,100.545
2199.4165,100.542
2200.3809,100.535
2201.3450,100.527
2202.3093,100.52
2203.2734,100.517
2204.2378,100.516
2205.2019,100.518
2206.1663,100.522
2207.1304,100.528
2208.0947,100.534
2209.0588,100.542
2210.0232,100.547
2210.9873,100.549
2211.9517,100.547
2212.9158,100.54
2213.8801,100.532
2214.8442,100.524
2215.8086,100.52
2216.7727,100.519
2217.7371,100.52
2218.7012,100.52
2219.6655,100.519
2220.6296,100.516
2221.5940,100.514
2222.5581,100.513
2223.5225,100.514
2224.4866,100.515
2225.4509,100.513
2226.4150,100.508
2227.3794,100.499
2228.3435,100.487
2229.3079,100.474
2230.2720,100.461
2231.2363,100.449
2232.2004,100.438
2233.1648,100.43
2234.1289,100.424
2235.0933,100.421
2236.0574,100.419
2237.0217,100.417
2237.9858,100.413
2238.9502,100.405
2239.9143,100.394
2240.8787,100.381
2241.8428,100.369
2242.8071,100.359
2243.7712,100.35
2244.7356,100.341
2245.6997,100.331
2246.6641,100.32
2247.6282,100.306
2248.5925,100.291
2249.5566,100.275
2250.5210,100.257
2251.4851,100.238
2252.4495,100.218
2253.4136,100.196
2254.3779,100.173
2255.3420,100.152
2256.3064,100.131
2257.2705,100.112
2258.2349,100.094
2259.1990,100.077
2260.1633,100.06
2261.1274,100.043
2262.0918,100.027
2263.0559,100.012
2264.0203,100
2264.9844,99.9913
2265.9487,99.9839
2266.9128,99.9763
2267.8772,99.9671
2268.8413,99.9561
2269.8057,99.9447
2270.7698,99.9354
2271.7341,99.9302
2272.6982,99.9296
2273.6626,99.9324
2274.6267,99.9365
2275.5911,99.9409
2276.5552,99.9458
2277.5195,99.9528
2278.4836,99.9628
2279.4480,99.9752
2280.4121,99.9872
2281.3765,99.9945
2282.3406,99.9929
2283.3049,99.9797
2284.2690,99.9539
2285.2334,99.9167
2286.1975,99.8709
2287.1619,99.8194
2288.1260,99.7645
2289.0903,99.707
2290.0544,99.6467
2291.0188,99.5842
2291.9829,99.5224
2292.9473,99.467
2293.9114,99.4243
2294.8757,99.3983
2295.8398,99.3885
2296.8042,99.3914
2297.7683,99.4031
2298.7327,99.4235
2299.6968,99.456
2300.6611,99.5051
2301.6252,99.5706
2302.5896,99.645
2303.5537,99.7138
2304.5181,99.7617
2305.4822,99.7809
2306.4465,99.7769
2307.4106,99.7692
2308.3750,99.7838
2309.3391,99.8411
2310.3035,99.9455
2311.2676,100.082
2312.2319,100.225
2313.1960,100.348
2314.1604,100.442
2315.1245,100.515
2316.0889,100.587
2317.0530,100.677
2318.0173,100.791
2318.9814,100.914
2319.9458,101.007
2320.9099,101.018
2321.8743,100.905
2322.8384,100.658
2323.8027,100.316
2324.7668,99.9606
2325.7312,99.6796
2326.6953,99.5368
2327.6597,99.5436
2328.6238,99.6529
2329.5881,99.7763
2330.5522,99.8225
2331.5166,99.7412
2332.4807,99.5452
2333.4451,99.2954
2334.4092,99.0615
2335.3735,98.8852
2336.3376,98.766
2337.3020,98.6695
2338.2661,98.5527
2339.2305,98.392
2340.1946,98.2104
2341.1589,98.0946
2342.1230,98.1797
2343.0874,98.547
2344.0515,99.0613
2345.0159,99.402
2345.9800,99.3663
2346.9443,99.0476
2347.9084,98.701
2348.8728,98.5389
2349.8369,98.6275
2350.8013,98.876
2351.7654,99.09
2352.7297,99.0876
2353.6938,98.8325
2354.6582,98.4474
2355.6223,98.0617
2356.5867,97.6979
2357.5508,97.3354
2358.5151,97.0121
2359.4792,96.8129
2360.4436,96.7819
2361.4077,96.8914
2362.3721,97.0971
2363.3362,97.3867
2364.3005,97.775
2365.2646,98.2466
2366.2290,98.7522
2367.1931,99.2468
2368.1575,99.7031
2369.1216,100.111
2370.0859,100.469
2371.0500,100.771
2372.0144,101.009
2372.9785,101.174
2373.9429,101.254
2374.9070,101.24
2375.8713,101.131
2376.8354,100.938
2377.7998,100.687
2378.7639,100.41
2379.7283,100.142
2380.6924,99.9117
2381.6567,99.7358
2382.6208,99.6208
2383.5852,99.562
2384.5493,99.5473
2385.5137,99.5613
2386.4778,99.5888
2387.4421,99.6179
2388.4063,99.6412
2389.3706,99.656
2390.3347,99.6635
2391.2991,99.6665
2392.2632,99.668
2393.2275,99.67
2394.1917,99.6728
2395.1560,99.6761
2396.1201,99.6799
2397.0845,99.6845
2398.0486,99.6898
2399.0129,99.6957
2399.9771,99.7012
2400.9414,99.7043
2401.9055,99.7041
2402.8699,99.7009
2403.8340,99.6966
2404.7983,99.6935
2405.7625,99.6932
2406.7268,99.6955
2407.6909,99.6986
2408.6553,99.7009
2409.6194,99.7018
2410.5837,99.702
2411.5479,99.7031
2412.5122,99.7058
2413.4763,99.7102
2414.4407,99.7154
2415.4048,99.7204
2416.3691,99.7252
2417.3333,99.7301
2418.2976,99.7352
2419.2617,99.7395
2420.2261,99.7413
2421.1902,99.7397
2422.1545,99.7351
2423.1187,99.7297
2424.0830,99.7268
2425.0471,99.7287
2426.0115,99.7355
2426.9756,99.7451
2427.9399,99.7543
2428.9041,99.76
2429.8684,99.7613
2430.8325,99.759
2431.7969,99.7553
2432.7610,99.7524
2433.7253,99.7517
2434.6895,99.7532
2435.6538,99.7559
2436.6179,99.7584
2437.5823,99.7601
2438.5464,99.7612
2439.5107,99.7629
2440.4749,99.7661
2441.4392,99.7715
2442.4033,99.7786
2443.3677,99.7861
2444.3318,99.7921
2445.2961,99.7952
2446.2603,99.7947
2447.2246,99.7906
2448.1887,99.7836
2449.1531,99.7753
2450.1172,99.7673
2451.0815,99.7617
2452.0457,99.76
2453.0100,99.7626
2453.9741,99.7686
2454.9385,99.7757
2455.9026,99.7813
2456.8669,99.7835
2457.8311,99.782
2458.7954,99.7778
2459.7595,99.7731
2460.7239,99.7695
2461.6880,99.7678
2462.6523,99.7678
2463.6165,99.7682
2464.5808,99.7681
2465.5449,99.7668
2466.5093,99.7642
2467.4734,99.7605
2468.4377,99.7559
2469.4019,99.7509
2470.3662,99.7462
2471.3303,99.7428
2472.2947,99.7422
2473.2588,99.7449
2474.2231,99.7505
2475.1873,99.7571
2476.1516,99.7619
2477.1157,99.7627
2478.0801,99.7593
2479.0442,99.7532
2480.0085,99.7473
2480.9727,99.744
2481.9370,99.7441
2482.9011,99.7466
2483.8655,99.7495
2484.8296,99.7514
2485.7939,99.7515
2486.7581,99.7507
2487.7224,99.7499
2488.6865,99.7495
2489.6509,99.7494
2490.6150,99.7487
2491.5793,99.7468
2492.5435,99.7433
2493.5078,99.7391
2494.4719,99.7358
2495.4363,99.7352
2496.4004,99.7385
2497.3647,99.7452
2498.3289,99.753
2499.2932,99.7586
2500.2573,99.7594
2501.2217,99.7549
2502.1858,99.747
2503.1501,99.7388
2504.1143,99.7331
2505.0786,99.7309
2506.0427,99.7315
2507.0071,99.7327
2507.9712,99.7329
2508.9355,99.7313
2509.8997,99.7279
2510.8640,99.7233
2511.8281,99.7181
2512.7925,99.7133
2513.7566,99.7102
2514.7209,99.7099
2515.6851,99.7128
2516.6494,99.7178
2517.6135,99.7229
2518.5779,99.7257
2519.5420,99.7246
2520.5063,99.7198
2521.4705,99.7131
2522.4348,99.7066
2523.3989,99.7019
2524.3633,99.6994
2525.3274,99.6987
2526.2917,99.6994
2527.2559,99.7009
2528.2202,99.7031
2529.1843,99.7057
2530.1487,99.708
2531.1128,99.7087
2532.0771,99.7065
2533.0413,99.7014
2534.0056,99.6944
2534.9697,99.6878
2535.9341,99.6839
2536.8982,99.6836
2537.8625,99.686
2538.8267,99.689
2539.7910,99.6898
2540.7551,99.6875
2541.7195,99.6826
2542.6836,99.6772
2543.6479,99.674
2544.6121,99.6742
2545.5764,99.6779
2546.5405,99.6839
2547.5049,99.6907
2548.4690,99.6972
2549.4333,99.7031
2550.3975,99.7086
2551.3618,99.7137
2552.3259,99.7183
2553.2903,99.7216
2554.2544,99.7231
2555.2188,99.7227
2556.1829,99.7212
2557.1472,99.7196
2558.1113,99.7189
2559.0757,99.7192
2560.0398,99.7197
2561.0042,99.7193
2561.9683,99.7174
2562.9326,99.7143
2563.8967,99.7114
2564.8611,99.7102
2565.8252,99.7117
2566.7896,99.7159
2567.7537,99.7218
2568.7180,99.7283
2569.6821,99.7343
2570.6465,99.7392
2571.6106,99.7425
2572.5750,99.7439
2573.5391,99.7431
2574.5034,99.7404
2575.4675,99.7366
2576.4319,99.7329
2577.3960,99.7302
2578.3604,99.7292
2579.3245,99.7296
2580.2888,99.7308
2581.2529,99.7323
2582.2173,99.7336
2583.1814,99.7341
2584.1458,99.7336
2585.1099,99.7319
2586.0742,99.7292
2587.0383,99.7263
2588.0027,99.7247
2588.9668,99.7256
2589.9312,99.7293
2590.8953,99.7351
2591.8596,99.7415
2592.8237,99.7464
2593.7881,99.7483
2594.7522,99.7466
2595.7166,99.7421
2596.6807,99.7361
2597.6450,99.7304
2598.6091,99.7265
2599.5735,99.7251
2600.5376,99.7258
2601.5020,99.7274
2602.4661,99.7284
2603.4304,99.7278
2604.3945,99.7256
2605.3589,99.7229
2606.3230,99.7217
2607.2874,99.7235
2608.2515,99.7289
2609.2158,99.7371
2610.1799,99.7465
2611.1443,99.7551
2612.1084,99.7617
2613.0728,99.7658
2614.0369,99.7681
2615.0012,99.7695
2615.9653,99.7707
2616.9297,99.7715
2617.8938,99.771
2618.8582,99.7685
2619.8223,99.764
2620.7866,99.7587
2621.7507,99.7541
2622.7151,99.7516
2623.6792,99.7512
2624.6436,99.752
2625.6077,99.7529
2626.5720,99.7537
2627.5361,99.7552
2628.5005,99.7589
2629.4646,99.7653
2630.4290,99.7739
2631.3931,99.7831
2632.3574,99.791
2633.3215,99.7969
2634.2859,99.8006
2635.2500,99.803
2636.2144,99.8049
2637.1785,99.8067
2638.1428,99.8091
2639.1069,99.8125
2640.0713,99.8174
2641.0354,99.8233
2641.9998,99.829
2642.9639,99.8328
2643.9282,99.8331
2644.8923,99.8299
2645.8567,99.8247
2646.8208,99.8198
2647.7852,99.8172
2648.7493,99.8176
2649.7136,99.8205
2650.6777,99.8246
2651.6421,99.8291
2652.6062,99.8341
2653.5706,99.8405
2654.5347,99.8493
2655.4990,99.8605
2656.4631,99.873
2657.4275,99.8847
2658.3916,99.8935
2659.3560,99.8984
2660.3201,99.9
2661.2844,99.9005
2662.2485,99.9027
2663.2129,99.9088
2664.1770,99.9194
2665.1414,99.9335
2666.1055,99.9488
2667.0698,99.963
2668.0339,99.9748
2668.9983,99.9842
2669.9624,99.9921
2670.9268,99.9995
2671.8909,100.007
2672.8552,100.014
2673.8193,100.021
2674.7837,100.027
2675.7478,100.031
2676.7122,100.033
2677.6763,100.032
2678.6406,100.029
2679.6047,100.023
2680.5691,100.014
2681.5332,100.006
2682.4976,99.9985
2683.4617,99.9929
2684.4260,99.989
2685.3901,99.9861
2686.3545,99.9835
2687.3186,99.9814
2688.2830,99.9805
2689.2471,99.982
2690.2114,99.9867
2691.1755,99.9941
2692.1399,100.003
2693.1040,100.012
2694.0684,100.019
2695.0325,100.024
2695.9968,100.027
2696.9609,100.027
2697.9253,100.026
2698.8894,100.024
2699.8538,100.021
2700.8179,100.019
2701.7822,100.017
2702.7463,100.017
2703.7107,100.018
2704.6748,100.018
2705.6392,100.016
2706.6033,100.01
2707.5676,99.9991
2708.5317,99.9857
2709.4961,99.9725
2710.4602,99.9624
2711.4246,99.9564
2712.3887,99.9532
2713.3530,99.95
2714.3171,99.9445
2715.2815,99.9367
2716.2456,99.9288
2717.2100,99.924
2718.1741,99.9248
2719.1384,99.931
2720.1025,99.9395
2721.0669,99.9459
2722.0310,99.9464
2722.9954,99.9395
2723.9595,99.9267
2724.9238,99.9118
2725.8879,99.8988
2726.8523,99.8904
2727.8164,99.8863
2728.7808,99.8844
2729.7449,99.8819
2730.7092,99.8775
2731.6733,99.8723
2732.6377,99.8689
2733.6018,99.8697
2734.5662,99.875
2735.5303,99.8824
2736.4946,99.8882
2737.4587,99.8893
2738.4231,99.8859
2739.3872,99.8809
2740.3516,99.8789
2741.3157,99.884
2742.2800,99.8972
2743.2441,99.9166
2744.2085,99.9379
2745.1726,99.9565
2746.1370,99.9692
2747.1011,99.9751
2748.0654,99.9753
2749.0295,99.9725
2749.9939,99.9697
2750.9580,99.9691
2751.9224,99.9719
2752.8865,99.9771
2753.8508,99.9828
2754.8149,99.986
2755.7793,99.984
2756.7434,99.9757
2757.7078,99.9623
2758.6719,99.9469
2759.6362,99.9339
2760.6003,99.9266
2761.5647,99.9259
2762.5288,99.9295
2763.4932,99.9325
2764.4573,99.9303
2765.4216,99.9201
2766.3857,99.9034
2767.3501,99.8846
2768.3142,99.8688
2769.2786,99.8592
2770.2427,99.8545
2771.2070,99.8499
2772.1711,99.8396
2773.1355,99.8199
2774.0996,99.7917
2775.0640,99.7596
2776.0281,99.7291
2776.9924,99.7032
2777.9565,99.6808
2778.9209,99.658
2779.8850,99.6302
2780.8494,99.596
2781.8135,99.5576
2782.7778,99.5201
2783.7419,99.4883
2784.7063,99.4652
2785.6704,99.4504
2786.6348,99.4372
2787.5989,99.4199
2788.5632,99.3939
2789.5273,99.358
2790.4917,99.3141
2791.4558,99.2665
2792.4202,99.22
2793.3843,99.178
2794.3486,99.141
2795.3127,99.1069
2796.2771,99.0726
2797.2412,99.0349
2798.2056,98.9919
2799.1697,98.9437
2800.1340,98.8914
2801.0981,98.8364
2802.0625,98.7803
2803.0266,98.7243
2803.9910,98.6686
2804.9551,98.6125
2805.9194,98.5547
2806.8835,98.493
2807.8479,98.4258
2808.8120,98.3522
2809.7764,98.2724
2810.7405,98.1871
2811.7048,98.0973
2812.6689,98.0037
2813.6333,97.9068
2814.5974,97.8065
2815.5618,97.7023
2816.5259,97.5924
2817.4902,97.4745
2818.4543,97.3453
2819.4187,97.2024
2820.3828,97.0442
2821.3472,96.8709
2822.3113,96.6831
2823.2756,96.4819
2824.2397,96.2676
2825.2041,96.0399
2826.1682,95.798
2827.1326,95.541
2828.0967,95.2682
2829.0610,94.9792
2830.0251,94.6739
2830.9895,94.3537
2831.9536,94.0216
2832.9180,93.6819
2833.8821,93.339
2834.8464,92.9971
2835.8105,92.6587
2836.7749,92.3253
2837.7390,91.9982
2838.7034,91.6791
2839.6675,91.3691
2840.6318,91.0673
2841.5959,90.7692
2842.5603,90.4674
2843.5244,90.156
2844.4888,89.8355
2845.4529,89.5174
2846.4172,89.2226
2847.3813,88.9751
2848.3457,88.7922
2849.3098,88.6763
2850.2742,88.6141
2851.2383,88.5823
2852.2026,88.5572
2853.1667,88.5231
2854.1311,88.4747
2855.0952,88.4144
2856.0596,88.3465
2857.0237,88.2728
2857.9880,88.1912
2858.9521,88.0973
2859.9165,87.9874
2860.8806,87.8603
2861.8450,87.7179
2862.8091,87.564
2863.7734,87.4037
2864.7375,87.2424
2865.7019,87.0849
2866.6660,86.935
2867.6304,86.7954
2868.5945,86.6675
2869.5588,86.5519
2870.5229,86.4486
2871.4873,86.3579
2872.4514,86.28
2873.4158,86.2146
2874.3799,86.1609
2875.3442,86.1167
2876.3083,86.0785
2877.2727,86.042
2878.2368,86.0031
2879.2012,85.9602
2880.1653,85.9148
2881.1296,85.8722
2882.0938,85.8389
2883.0581,85.8209
2884.0222,85.8209
2884.9866,85.8372
2885.9507,85.8635
2886.9150,85.8912
2887.8792,85.9115
2888.8435,85.9182
2889.8076,85.9098
2890.7720,85.89
2891.7361,85.865
2892.7004,85.8387
2893.6646,85.8081
2894.6289,85.7617
2895.5930,85.6844
2896.5574,85.5665
2897.5215,85.411
2898.4858,85.236
2899.4500,85.0677
2900.4143,84.9288
2901.3784,84.8281
2902.3428,84.7574
2903.3069,84.6965
2904.2712,84.6235
2905.2354,84.5234
2906.1997,84.3905
2907.1638,84.2265
2908.1282,84.0353
2909.0923,83.8197
2910.0566,83.582
2911.0208,83.3254
2911.9851,83.0571
2912.9492,82.7888
2913.9136,82.5347
2914.8777,82.3083
2915.8420,82.1188
2916.8062,81.9684
2917.7705,81.8518
2918.7346,81.7589
2919.6990,81.6782
2920.6631,81.6004
2921.6274,81.5214
2922.5916,81.4411
2923.5559,81.3626
2924.5200,81.2888
2925.4844,81.2219
2926.4485,81.1632
2927.4128,81.1142
2928.3770,81.0775
2929.3413,81.057
2930.3054,81.0566
2931.2698,81.0792
2932.2339,81.126
2933.1982,81.1974
2934.1624,81.2934
2935.1267,81.4143
2936.0908,81.5612
2937.0552,81.7338
2938.0193,81.9304
2938.9836,82.1462
2939.9478,82.3752
2940.9121,82.611
2941.8762,82.8486
2942.8406,83.0844
2943.8047,83.3156
2944.7690,83.5385
2945.7332,83.7487
2946.6975,83.9412
2947.6616,84.1123
2948.6260,84.2606
2949.5901,84.3871
2950.5544,84.4946
2951.5186,84.5864
2952.4829,84.6657
2953.4470,84.7356
2954.4114,84.8002
2955.3755,84.8644
2956.3398,84.9342
2957.3040,85.0152
2958.2683,85.1108
2959.2324,85.2211
2960.1968,85.3427
2961.1609,85.4697
2962.1252,85.5964
2963.0894,85.7194
2964.0537,85.8391
2965.0178,85.9589
2965.9822,86.0833
2966.9463,86.2162
2967.9106,86.3608
2968.8748,86.5199
2969.8391,86.6966
2970.8032,86.8942
2971.7676,87.1146
2972.7317,87.3565
2973.6960,87.6154
2974.6602,87.8848
2975.6245,88.1583
2976.5886,88.432
2977.5530,88.7058
2978.5171,88.9818
2979.4814,89.2625
2980.4456,89.5472
2981.4099,89.8295
2982.3740,90.0983
2983.3384,90.3417
2984.3025,90.555
2985.2668,90.7474
2986.2310,90.9426
2987.1953,91.172
2988.1594,91.4598
2989.1238,91.8103
2990.0879,92.2033
2991.0522,92.6011
2992.0164,92.9652
2992.9807,93.2718
2993.9448,93.5189
2994.9092,93.7228
2995.8733,93.9069
2996.8376,94.0901
2997.8018,94.2812
2998.7661,94.4801
2999.7302,94.6824
3000.6946,94.8845
3001.6587,95.0858
3002.6230,95.2882
3003.5872,95.4953
3004.5515,95.709
3005.5156,95.9288
3006.4800,96.15
3007.4441,96.3659
3008.4084,96.5697
3009.3726,96.7586
3010.3369,96.9351
3011.3010,97.106
3012.2654,97.2786
3013.2295,97.4557
3014.1938,97.6342
3015.1580,97.8069
3016.1223,97.9669
3017.0864,98.1107
3018.0508,98.2394
3019.0149,98.3563
3019.9792,98.4646
3020.9434,98.5657
3021.9077,98.6597
3022.8718,98.7468
3023.8362,98.8276
3024.8003,98.9025
3025.7646,98.9704
3026.7288,99.0292
3027.6931,99.0778
3028.6572,99.1183
3029.6216,99.1567
3030.5857,99.2001
3031.5500,99.2533
3032.5142,99.3153
3033.4785,99.3803
3034.4426,99.441
3035.4070,99.4925
3036.3711,99.5345
3037.3354,99.5324
3038.2996,99.5207
3039.2639,99.505
3040.2280,99.4833
3041.1924,99.4527
3042.1565,99.4113
3043.1208,99.3598
3044.0850,99.3014
3045.0493,99.2407
3046.0134,99.1827
3046.9778,99.1302
3047.9419,99.0831
3048.9063,99.0377
3049.8704,98.9883
3050.8347,98.9294
3051.7988,98.8589
3052.7632,98.7791
3053.7273,98.6964
3054.6917,98.619
3055.6558,98.5537
3056.6201,98.5029
3057.5842,98.4638
3058.5486,98.4289
3059.5127,98.3889
3060.4771,98.3365
3061.4412,98.269
3062.4055,98.1903
3063.3696,98.1097
3064.3340,98.0379
3065.2981,97.9824
3066.2625,97.9437
3067.2266,97.9155
3068.1909,97.8878
3069.1550,97.8529
3070.1194,97.8074
3071.0835,97.7535
3072.0479,97.6954
3073.0120,97.6363
3073.9763,97.5766
3074.9404,97.5145
3075.9048,97.4481
3076.8689,97.3783
3077.8333,97.3085
3078.7974,97.2439
3079.7617,97.1878
3080.7258,97.1401
3081.6902,97.0971
3082.6543,97.0535
3083.6187,97.0051
3084.5828,96.9502
3085.5471,96.8898
3086.5112,96.8258
3087.4756,96.7594
3088.4397,96.6903
3089.4041,96.6171
3090.3682,96.5386
3091.3325,96.4547
3092.2966,96.367
3093.2610,96.2776
3094.2251,96.1881
3095.1895,96.0985
3096.1536,96.0078
3097.1179,95.9146
3098.0820,95.8194
3099.0464,95.7242
3100.0105,95.6321
3100.9749,95.5464
3101.9390,95.4687
3102.9033,95.3985
3103.8674,95.3336
3104.8318,95.2707
3105.7959,95.2062
3106.7603,95.1364
3107.7244,95.0589
3108.6887,94.9728
3109.6528,94.8793
3110.6172,94.7809
3111.5813,94.6805
3112.5457,94.5802
3113.5098,94.4809
3114.4741,94.383
3115.4382,94.2875
3116.4026,94.1966
3117.3667,94.1132
3118.3311,94.0391
3119.2952,93.9735
3120.2595,93.9125
3121.2236,93.8507
3122.1880,93.7837
3123.1521,93.7098
3124.1165,93.6308
3125.0806,93.55
3126.0449,93.469
3127.0090,93.3869
3127.9734,93.3005
3128.9375,93.2073
3129.9019,93.1084
3130.8660,93.0088
3131.8303,92.9153
3132.7944,92.8324
3133.7588,92.7597
3134.7229,92.6918
3135.6873,92.6221
3136.6514,92.5465
3137.6157,92.4649
3138.5798,92.381
3139.5442,92.2986
3140.5083,92.2195
3141.4727,92.1424
3142.4368,92.0637
3143.4011,91.9799
3144.3652,91.8896
3145.3296,91.7938
3146.2937,91.696
3147.2581,91.6005
3148.2222,91.5106
3149.1865,91.4267
3150.1506,91.3464
3151.1150,91.2651
3152.0791,91.1787
3153.0435,91.0861
3154.0076,90.99
3154.9719,90.8945
3155.9360,90.803
3156.9004,90.7156
3157.8645,90.6296
3158.8289,90.5413
3159.7930,90.4496
3160.7573,90.3558
3161.7214,90.2637
3162.6858,90.1758
3163.6499,90.0926
3164.6143,90.0118
3165.5784,89.9304
3166.5427,89.8464
3167.5068,89.7597
3168.4712,89.6716
3169.4353,89.6366
3170.3997,89.5471
3171.3638,89.4548
3172.3281,89.3585
3173.2922,89.2579
3174.2566,89.155
3175.2207,89.0534
3176.1851,88.9576
3177.1492,88.8706
3178.1135,88.7925
3179.0776,88.72
3180.0420,88.6478
3181.0061,88.5717
3181.9705,88.4902
3182.9346,88.4058
3183.8989,88.3227
3184.8630,88.2445
3185.8274,88.1711
3186.7915,88.0993
3187.7559,88.0251
3188.7200,87.9462
3189.6843,87.8632
3190.6484,87.7788
3191.6128,87.6947
3192.5769,87.6105
3193.5413,87.5238
3194.5054,87.4338
3195.4697,87.3424
3196.4338,87.2549
3197.3982,87.1768
3198.3623,87.1103
3199.3267,87.0528
3200.2908,86.9983
3201.2551,86.9408
3202.2192,86.8769
3203.1836,86.8062
3204.1477,86.7305
3205.1121,86.6522
3206.0762,86.573
3207.0405,86.4943
3208.0046,86.4166
3208.9690,86.3398
3209.9331,86.2631
3210.8975,86.1859
3211.8616,86.1089
3212.8259,86.0346
3213.7900,85.9666
3214.7544,85.9072
3215.7185,85.8556
3216.6829,85.8072
3217.6470,85.7567
3218.6113,85.7002
3219.5754,85.6372
3220.5398,85.5702
3221.5039,85.5018
3222.4683,85.4331
3223.4324,85.3639
3224.3967,85.2945
3225.3608,85.2276
3226.3252,85.1672
3227.2893,85.1161
3228.2537,85.0729
3229.2178,85.0311
3230.1821,84.9827
3231.1462,84.9229
3232.1106,84.8535
3233.0747,84.7821
3234.0391,84.7177
3235.0032,84.6654
3235.9675,84.6232
3236.9316,84.584
3237.8960,84.5395
3238.8601,84.4853
3239.8245,84.4225
3240.7886,84.3563
3241.7529,84.2927
3242.7170,84.2351
3243.6814,84.1843
3244.6455,84.1385
3245.6099,84.0957
3246.5740,84.054
3247.5383,84.012
3248.5024,83.9687
3249.4668,83.9229
3250.4309,83.8737
3251.3953,83.8213
3252.3594,83.7668
3253.3237,83.7119
3254.2878,83.6582
3255.2522,83.6066
3256.2163,83.5578
3257.1807,83.5127
3258.1448,83.4722
3259.1091,83.4365
3260.0732,83.4042
3261.0376,83.3722
3262.0017,83.3371
3262.9661,83.2965
3263.9302,83.2503
3264.8945,83.2001
3265.8586,83.148
3266.8230,83.0949
3267.7871,83.0407
3268.7515,82.9851
3269.7156,82.9289
3270.6799,82.8745
3271.6440,82.8255
3272.6084,82.7841
3273.5725,82.7503
3274.5369,82.7219
3275.5010,82.696
3276.4653,82.6705
3277.4294,82.6451
3278.3938,82.6204
3279.3579,82.5965
3280.3223,82.5722
3281.2864,82.5458
3282.2507,82.5156
3283.2148,82.4803
3284.1792,82.4396
3285.1433,82.3935
3286.1077,82.3421
3287.0718,82.2869
3288.0361,82.2307
3289.0002,82.1775
3289.9646,82.1315
3290.9287,82.0956
3291.8931,82.0699
3292.8572,82.0523
3293.8215,82.0386
3294.7856,82.024
3295.7500,82.0042
3296.7141,81.9759
3297.6785,81.9383
3298.6426,81.8941
3299.6069,81.8485
3300.5710,81.8072
3301.5354,81.7735
3302.4995,81.7464
3303.4639,81.721
3304.4280,81.6922
3305.3923,81.6574
3306.3564,81.6192
3307.3208,81.583
3308.2849,81.5547
3309.2493,81.5369
3310.2134,81.5284
3311.1777,81.5253
3312.1418,81.5234
3313.1062,81.5194
3314.0703,81.5108
3315.0347,81.496
3315.9988,81.4734
3316.9631,81.4431
3317.9272,81.4068
3318.8916,81.3679
3319.8557,81.3299
3320.8201,81.2957
3321.7842,81.2662
3322.7485,81.2417
3323.7126,81.2226
3324.6770,81.2092
3325.6411,81.2014
3326.6055,81.1973
3327.5696,81.1934
3328.5339,81.1849
3329.4980,81.1687
3330.4624,81.1442
3331.4265,81.114
3332.3909,81.0821
3333.3550,81.052
3334.3193,81.0262
3335.2834,81.0053
3336.2478,80.989
3337.2119,80.9762
3338.1763,80.9664
3339.1404,80.959
3340.1047,80.9533
3341.0688,80.9484
3342.0332,80.9424
3342.9973,80.933
3343.9617,80.9184
3344.9258,80.8982
3345.8901,80.8745
3346.8542,80.8514
3347.8186,80.8336
3348.7827,80.8245
3349.7471,80.824
3350.7112,80.8293
3351.6755,80.8358
3352.6396,80.8398
3353.6040,80.8394
3354.5681,80.8348
3355.5325,80.8272
3356.4966,80.8183
3357.4609,80.8094
3358.4250,80.801
3359.3894,80.7924
3360.3535,80.782
3361.3179,80.7679
3362.2820,80.7493
3363.2463,80.7283
3364.2104,80.7097
3365.1748,80.6994
3366.1389,80.7014
3367.1033,80.7148
3368.0674,80.7348
3369.0317,80.7552
3369.9958,80.772
3370.9602,80.7846
3371.9243,80.7943
3372.8887,80.8014
3373.8528,80.8042
3374.8171,80.8004
3375.7813,80.7903
3376.7456,80.778
3377.7097,80.771
3378.6741,80.7753
3379.6382,80.7922
3380.6025,80.8171
3381.5667,80.8423
3382.5310,80.8615
3383.4951,80.8727
3384.4595,80.8782
3385.4236,80.8818
3386.3879,80.8864
3387.3521,80.8926
3388.3164,80.9004
3389.2805,80.9106
3390.2449,80.9252
3391.2090,80.9467
3392.1733,80.9763
3393.1375,81.0132
3394.1018,81.0554
3395.0659,81.1008
3396.0303,81.148
3396.9944,81.1947
3397.9587,81.2374
3398.9229,81.2717
3399.8872,81.2943
3400.8513,81.306
3401.8157,81.3118
3402.7798,81.3198
3403.7441,81.3369
3404.7083,81.3666
3405.6726,81.4068
3406.6367,81.452
3407.6011,81.4954
3408.5652,81.5327
3409.5295,81.5633
3410.4937,81.5901
3411.4580,81.6168
3412.4221,81.6455
3413.3865,81.6744
3414.3506,81.6995
3415.3149,81.7171
3416.2791,81.7275
3417.2434,81.7367
3418.2075,81.7554
3419.1719,81.7948
3420.1360,81.8601
3421.1003,81.9469
3422.0645,82.0423
3423.0288,82.1317
3423.9929,82.2053
3424.9573,82.2619
3425.9214,82.3072
3426.8857,82.3503
3427.8499,82.3984
3428.8142,82.4537
3429.7783,82.5132
3430.7427,82.5721
3431.7068,82.6274
3432.6711,82.6802
3433.6353,82.7348
3434.5996,82.7945
3435.5637,82.8588
3436.5281,82.9224
3437.4922,82.9779
3438.4565,83.0203
3439.4207,83.0493
3440.3850,83.0697
3441.3491,83.089
3442.3135,83.115
3443.2776,83.1545
3444.2419,83.2124
3445.2061,83.2911
3446.1704,83.3884
3447.1345,83.4964
3448.0989,83.6036
3449.0630,83.7007
3450.0273,83.7851
3450.9915,83.8607
3451.9558,83.9329
3452.9199,84.0031
3453.8843,84.0677
3454.8484,84.1208
3455.8127,84.1594
3456.7769,84.1874
3457.7412,84.2152
3458.7053,84.2542
3459.6697,84.3117
3460.6338,84.3871
3461.5981,84.4727
3462.5623,84.5589
3463.5266,84.6394
3464.4907,84.7143
3465.4551,84.7885
3466.4192,84.8679
3467.3835,84.9547
3468.3477,85.0461
3469.3120,85.1355
3470.2761,85.2171
3471.2405,85.2895
3472.2046,85.3566
3473.1689,85.4245
3474.1331,85.4968
3475.0974,85.5716
3476.0615,85.6417
3477.0259,85.7005
3477.9900,85.7467
3478.9543,85.7873
3479.9185,85.8354
3480.8828,85.9036
3481.8469,85.9964
3482.8113,86.107
3483.7754,86.222
3484.7397,86.3294
3485.7039,86.4233
3486.6682,86.5056
3487.6323,86.5824
3488.5967,86.6598
3489.5608,86.7406
3490.5251,86.8236
3491.4893,86.9063
3492.4536,86.9876
3493.4177,87.0684
3494.3821,87.1502
3495.3462,87.2318
3496.3105,87.3074
3497.2747,87.3692
3498.2390,87.4134
3499.2031,87.4452
3500.1675,87.4799
3501.1316,87.539
3502.0959,87.6392
3503.0601,87.7783
3504.0244,87.9336
3504.9885,88.0764
3505.9529,88.191
3506.9170,88.2801
3507.8813,88.3595
3508.8455,88.4476
3509.8098,88.5552
3510.7739,88.6801
3511.7383,88.8102
3512.7024,88.9338
3513.6667,89.0458
3514.6309,89.1474
3515.5952,89.241
3516.5593,89.3272
3517.5237,89.4044
3518.4878,89.4718
3519.4521,89.5323
3520.4163,89.5924
3521.3806,89.6605
3522.3447,89.7423
3523.3091,89.8372
3524.2732,89.9392
3525.2375,90.0434
3526.2017,90.151
3527.1660,90.2693
3528.1301,90.4043
3529.0945,90.5531
3530.0586,90.7034
3531.0229,90.8417
3531.9871,90.9624
3532.9514,91.0698
3533.9155,91.1759
3534.8799,91.2937
3535.8440,91.4303
3536.8083,91.5804
3537.7725,91.7278
3538.7368,91.8534
3539.7009,91.9458
3540.6653,92.0052
3541.6294,92.0429
3542.5938,92.0804
3543.5579,92.147
3544.5222,92.2684
3545.4863,92.4458
3546.4507,92.6483
3547.4148,92.8344
3548.3792,92.9818
3549.3433,93.0981
3550.3076,93.2083
3551.2717,93.339
3552.2361,93.5041
3553.2002,93.6962
3554.1646,93.8934
3555.1287,94.0752
3556.0930,94.2329
3557.0571,94.3673
3558.0215,94.4795
3558.9856,94.5677
3559.9500,94.6292
3560.9141,94.6646
3561.8784,94.6804
3562.8425,94.6868
3563.8069,94.6973
3564.7710,94.7412
3565.7354,94.873
3566.6995,95.1307
3567.6638,95.4617
3568.6279,95.7523
3569.5923,95.9406
3570.5564,96.0454
3571.5208,96.1139
3572.4849,96.178
3573.4492,96.247
3574.4133,96.3198
3575.3777,96.3958
3576.3418,96.4769
3577.3062,96.5644
3578.2703,96.6536
3579.2346,96.7344
3580.1987,96.7975
3581.1631,96.8411
3582.1272,96.8728
3583.0916,96.9023
3584.0557,96.9331
3585.0200,96.9671
3585.9841,97.0203
3586.9485,97.1124
3587.9126,97.2206
3588.8770,97.2832
3589.8411,97.2694
3590.8054,97.2045
3591.7695,97.1339
3592.7339,97.0906
3593.6980,97.0871
3594.6624,97.1166
3595.6265,97.1567
3596.5908,97.1864
3597.5549,97.2055
3598.5193,97.2371
3599.4834,97.3083
3600.4478,97.426
3601.4119,97.5686
3602.3762,97.7041
3603.3403,97.8137
3604.3047,97.8976
3605.2688,97.9667
3606.2332,98.0372
3607.1973,98.1253
3608.1616,98.2328
3609.1257,98.3359
3610.0901,98.4012
3611.0542,98.4131
3612.0186,98.3838
3612.9829,98.3416
3613.9470,98.3136
3614.9114,98.3129
3615.8755,98.337
3616.8398,98.3756
3617.8040,98.4212
3618.7683,98.4689
3619.7324,98.4994
3620.6968,98.4796
3621.6609,98.4035
3622.6252,98.3153
3623.5894,98.2784
3624.5537,98.3281
3625.5178,98.4476
3626.4822,98.5841
3627.4463,98.7038
3628.4106,98.8197
3629.3748,98.9162
3630.3391,98.9332
3631.3032,98.8707
3632.2676,98.7993
3633.2317,98.7833
3634.1960,98.8385
3635.1602,98.9383
3636.1245,99.0425
3637.0886,99.1224
3638.0530,99.1705
3639.0171,99.1926
3639.9814,99.1969
3640.9456,99.1907
3641.9099,99.184
3642.8740,99.1908
3643.8384,99.2182
3644.8025,99.2451
3645.7668,99.2104
3646.7310,99.0578
3647.6953,98.8701
3648.6594,98.8969
3649.6238,99.1884
3650.5879,99.4701
3651.5522,99.5729
3652.5164,99.5524
3653.4807,99.5102
3654.4448,99.4931
3655.4092,99.4973
3656.3733,99.501
3657.3376,99.487
3658.3018,99.4556
3659.2661,99.4252
3660.2302,99.4162
3661.1946,99.4313
3662.1587,99.456
3663.1230,99.4777
3664.0872,99.5006
3665.0515,99.5374
3666.0156,99.5844
3666.9800,99.6079
3667.9441,99.5714
3668.9084,99.487
3669.8726,99.4127
3670.8369,99.3841
3671.8010,99.3895
3672.7654,99.3973
3673.7295,99.3794
3674.6938,99.3459
3675.6580,99.3469
3676.6223,99.3917
3677.5864,99.4291
3678.5508,99.4344
3679.5149,99.4276
3680.4792,99.4262
3681.4434,99.4275
3682.4077,99.4269
3683.3718,99.435
3684.3362,99.4694
3685.3003,99.5253
3686.2646,99.5558
3687.2288,99.4974
3688.1931,99.3489
3689.1572,99.2065
3690.1216,99.1508
3691.0857,99.1594
3692.0500,99.1832
3693.0142,99.2092
3693.9785,99.2437
3694.9426,99.2902
3695.9070,99.3477
3696.8711,99.4143
3697.8354,99.487
3698.7996,99.5577
3699.7639,99.6158
3700.7280,99.6541
3701.6924,99.6714
3702.6565,99.6665
3703.6208,99.6412
3704.5850,99.6074
3705.5493,99.5829
3706.5134,99.5733
3707.4778,99.5651
3708.4419,99.5485
3709.4063,99.5666
3710.3704,99.7166
3711.3347,100.02
3712.2988,100.335
3713.2632,100.506
3714.2273,100.507
3715.1917,100.406
3716.1558,100.271
3717.1201,100.134
3718.0842,99.9971
3719.0486,99.8518
3720.0127,99.6968
3720.9771,99.5418
3721.9412,99.4032
3722.9055,99.2988
3723.8696,99.2427
3724.8340,99.2372
3725.7981,99.2676
3726.7625,99.3125
3727.7266,99.3619
3728.6909,99.4182
3729.6550,99.4797
3730.6194,99.5248
3731.5835,99.5175
3732.5479,99.442
3733.5120,99.3537
3734.4763,99.3619
3735.4404,99.4934
3736.4048,99.6325
3737.3689,99.6828
3738.3333,99.6838
3739.2974,99.7479
3740.2617,99.9565
3741.2258,100.302
3742.1902,100.678
3743.1543,100.94
3744.1187,100.963
3745.0828,100.762
3746.0471,100.449
3747.0112,100.151
3747.9756,99.9437
3748.9397,99.8556
3749.9041,99.9094
3750.8682,100.091
3751.8325,100.265
3752.7966,100.292
3753.7610,100.178
3754.7251,100.021
3755.6895,99.8989
3756.6536,99.8382
3757.6179,99.8386
3758.5820,99.8894
3759.5464,99.9648
3760.5105,100.031
3761.4749,100.071
3762.4390,100.092
3763.4033,100.104
3764.3674,100.113
3765.3318,100.119
3766.2959,100.121
3767.2603,100.121
3768.2244,100.128
3769.1887,100.151
3770.1528,100.187
3771.1172,100.22
3772.0813,100.235
3773.0457,100.23
3774.0098,100.22
3774.9741,100.215
3775.9382,100.211
3776.9026,100.199
3777.8667,100.178
3778.8311,100.156
3779.7952,100.134
3780.7595,100.1
3781.7236,100.052
3782.6880,100.001
3783.6521,99.9682
3784.6165,99.9738
3785.5806,100.023
3786.5449,100.101
3787.5090,100.183
3788.4734,100.248
3789.4375,100.291
3790.4019,100.314
3791.3660,100.322
3792.3303,100.304
3793.2944,100.246
3794.2588,100.142
3795.2229,100.015
3796.1873,99.9074
3797.1514,99.859
3798.1157,99.8755
3799.0798,99.9278
3800.0442,99.9767
3801.0083,100
3801.9727,99.9977
3802.9368,99.984
3803.9011,99.9886
3804.8652,100.038
3805.8296,100.132
3806.7937,100.23
3807.7581,100.279
3808.7222,100.251
3809.6865,100.177
3810.6506,100.13
3811.6150,100.155
3812.5791,100.235
3813.5435,100.301
3814.5076,100.286
3815.4719,100.18
3816.4360,100.032
3817.4004,99.8983
3818.3645,99.8129
3819.3289,99.7888
3820.2930,99.8182
3821.2573,99.8628
3822.2214,99.866
3823.1858,99.8072
3824.1499,99.725
3825.1143,99.6773
3826.0784,99.6975
3827.0427,99.7799
3828.0068,99.8905
3828.9712,99.9891
3829.9353,100.05
3830.8997,100.073
3831.8638,100.073
3832.8281,100.072
3833.7922,100.072
3834.7566,100.053
3835.7207,99.9852
3836.6851,99.8558
3837.6492,99.7001
3838.6135,99.582
3839.5776,99.5429
3840.5420,99.5823
3841.5061,99.6777
3842.4705,99.7981
3843.4346,99.9035
3844.3989,99.9539
3845.3630,99.9345
3846.3274,99.8748
3847.2915,99.8402
3848.2559,99.8982
3849.2200,100.078
3850.1843,100.34
3851.1484,100.591
3852.1128,100.765
3853.0769,100.878
3854.0413,100.887
3855.0054,100.694
3855.9697,100.36
3856.9338,100.047
3857.8982,99.8645
3858.8623,99.8257
3859.8267,99.8715
3860.7908,99.9168
3861.7551,99.9068
3862.7192,99.8556
3863.6836,99.8225
3864.6477,99.8477
3865.6121,99.9234
3866.5762,100.012
3867.5405,100.072
3868.5046,100.074
3869.4690,100.022
3870.4331,99.9566
3871.3975,99.9196
3872.3616,99.9229
3873.3259,99.9513
3874.2900,99.989
3875.2544,100.03
3876.2185,100.071
3877.1829,100.099
3878.1470,100.094
3879.1113,100.048
3880.0754,99.9812
3881.0398,99.9326
3882.0039,99.9369
3882.9683,100.003
3883.9324,100.111
3884.8967,100.221
3885.8608,100.291
3886.8252,100.299
3887.7893,100.252
3888.7537,100.172
3889.7178,100.081
3890.6821,99.9975
3891.6462,99.9398
3892.6106,99.9132
3893.5747,99.9078
3894.5391,99.922
3895.5032,99.9627
3896.4675,100.023
3897.4316,100.075
3898.3960,100.091
3899.3601,100.063
3900.3245,100.008
3901.2886,99.9434
3902.2529,99.8904
3903.2170,99.8674
3904.1814,99.8788
3905.1455,99.909
3906.1099,99.9401
3907.0740,99.9671
3908.0383,99.9931
3909.0024,100.018
3909.9668,100.035
3910.9309,100.041
3911.8953,100.038
3912.8594,100.033
3913.8237,100.033
3914.7878,100.035
3915.7522,100.037
3916.7163,100.034
3917.6807,100.024
3918.6448,99.9978
3919.6091,99.9496
3920.5732,99.8848
3921.5376,99.8182
3922.5017,99.7663
3923.4661,99.7404
3924.4302,99.7402
3925.3945,99.7509
3926.3586,99.7528
3927.3230,99.7358
3928.2871,99.7032
3929.2515,99.6692
3930.2156,99.6553
3931.1799,99.6813
3932.1440,99.7488
3933.1084,99.8344
3934.0725,99.9079
3935.0369,99.9535
3936.0010,99.9725
3936.9653,99.9727
3937.9294,99.9592
3938.8938,99.9324
3939.8579,99.8931
3940.8223,99.8486
3941.7864,99.8124
3942.7507,99.7952
3943.7148,99.7967
3944.6792,99.8058
3945.6433,99.8102
3946.6077,99.8021
3947.5718,99.7831
3948.5361,99.7629
3949.5002,99.7531
3950.4646,99.7583
3951.4287,99.7748
3952.3931,99.7956
3953.3572,99.8144
3954.3215,99.8268
3955.2856,99.8303
3956.2500,99.825
3957.2141,99.8133
3958.1785,99.8005
3959.1426,99.7932
3960.1069,99.7975
3961.0710,99.8163
3962.0354,99.847
3962.9995,99.8818
3963.9639,99.9109
3964.9280,99.9266
3965.8923,99.9252
3966.8564,99.9074
3967.8208,99.8766
3968.7849,99.8387
3969.7493,99.8004
3970.7134,99.769
3971.6777,99.7502
3972.6418,99.7474
3973.6062,99.7599
3974.5703,99.7818
3975.5347,99.8044
3976.4988,99.8191
3977.4631,99.8217
3978.4272,99.8138
3979.3916,99.8013
3980.3557,99.7913
3981.3201,99.7884
3982.2842,99.7923
3983.2485,99.7985
3984.2126,99.8011
3985.1770,99.7962
3986.1411,99.7838
3987.1055,99.7671
3988.0696,99.75
3989.0339,99.7353
3989.9980,99.7243
3990.9624,99.7176
3991.9265,99.7164
3992.8909,99.7234
3993.8550,99.7377
3994.8193,99.7552
3995.7834,99.7701
3996.7478,99.7758
3997.7119,99.7697
3998.6763,99.754
3999.6404,99.7353
4000.6047,99.5263

##### Extended Information
[Comments]
Sample name
Comment
User
Division
Company,HANKYONG

[Detailed Information]
Creation date,4/24/2024 11:48 AM

Data array type,Linear data array
Horizontal axis,Wavenumber [cm-1]
Vertical axis,%T
Start,649.893 cm-1
End,4000.6 cm-1
Data interval,0.964233 cm-1
Data points,3476    

[Measurement Information]
Model Name,FT/IR-4700typeA
Serial Number,D056761788

Accessory,ATR PRO ONE
Accessory S/N,C174761809
Incident angle,45 deg

Measurement Date,4/24/2024 11:47 AM

Light Source,Standard
Detector,TGS
Accumulation,32
Resolution,4 cm-1
Zero Filling,On
Apodization,Cosine
Gain,Auto (4)
Aperture,Auto (7.1 mm)
Scanning Speed,Auto (2 mm/sec)
Filter,Auto (30000 Hz)

