TITLE,
DATA TYPE,INFRARED SPECTRUM
ORIGIN,JASCO
OWNER,
DATE,24/04/24
TIME,10:50:55
SPECTROMETER/DATA SYSTEM,
LOCALE,1033
RESOLUTION,
DELTAX,0.964233
XUNITS,1/CM
YUNITS,TRANSMITTANCE
FIRSTX,  649.8934
LASTX, 4000.6047
NPOINTS,    3476
FIRSTY,    99.03654
MAXY,   100.74811
MINY,    68.11185
XYDATA
649.8934,99.0365
650.8576,99.0664
651.8218,99.1008
652.7861,99.1368
653.7503,99.1797
654.7145,99.2343
655.6788,99.2929
656.6430,99.267
657.6072,99.1928
658.5715,99.0787
659.5357,98.9479
660.4999,98.8394
661.4642,98.7786
662.4284,98.7539
663.3926,98.7178
664.3569,98.6032
665.3211,98.3346
666.2853,97.8468
667.2496,97.158
668.2138,96.4922
669.1780,96.1731
670.1423,96.2412
671.1065,96.4675
672.0707,96.6573
673.0350,96.7344
673.9992,96.6928
674.9634,96.5606
675.9277,96.3848
676.8919,96.2139
677.8561,96.0792
678.8204,95.9898
679.7846,95.9387
680.7488,95.9122
681.7131,95.8927
682.6773,95.862
683.6415,95.8081
684.6058,95.7325
685.5700,95.6507
686.5342,95.583
687.4985,95.542
688.4627,95.5231
689.4269,95.5056
690.3912,95.4649
691.3554,95.3936
692.3196,95.3196
693.2839,95.2989
694.2481,95.3669
695.2123,95.5001
696.1766,95.6429
697.1408,95.7501
698.1050,95.8005
699.0693,95.7935
700.0335,95.7435
700.9977,95.6721
701.9620,95.5977
702.9262,95.5289
703.8904,95.463
704.8547,95.389
705.8189,95.2933
706.7831,95.1665
707.7474,95.0078
708.7116,94.8259
709.6758,94.6338
710.6401,94.44
711.6043,94.2395
712.5685,94.0125
713.5328,93.7318
714.4970,93.3773
715.4612,93.0606
716.4255,92.5778
717.3897,92.0995
718.3539,91.6831
719.3182,91.3717
720.2824,91.1741
721.2466,91.0578
722.2109,90.9645
723.1751,90.839
724.1393,90.6513
725.1036,90.4027
726.0678,90.1191
727.0320,89.8367
727.9963,89.5876
728.9605,89.3892
729.9247,89.2411
730.8890,89.1293
731.8532,89.0307
732.8174,88.9183
733.7817,88.7635
734.7459,88.5382
735.7101,88.2191
736.6744,87.7925
737.6386,87.2599
738.6028,86.6404
739.5671,85.9689
740.5313,85.2889
741.4955,84.6432
742.4598,84.0657
743.4240,83.5769
744.3882,83.1849
745.3525,82.8882
746.3167,82.6794
747.2809,82.5482
748.2452,82.484
749.2094,82.478
750.1736,82.5251
751.1379,82.6234
752.1021,82.7717
753.0663,82.964
754.0306,83.1863
754.9948,83.4176
755.9590,83.6338
756.9233,83.8145
757.8875,83.9467
758.8517,84.0264
759.8160,84.0557
760.7802,84.0403
761.7444,83.9872
762.7087,83.9032
763.6729,83.7956
764.6371,83.6735
765.6014,83.5494
766.5656,83.4414
767.5298,83.3723
768.4941,83.3649
769.4583,83.4346
770.4225,83.582
771.3868,83.7895
772.3510,84.0246
773.3152,84.2483
774.2795,84.4256
775.2437,84.5343
776.2079,84.5673
777.1722,84.5299
778.1364,84.4344
779.1006,84.2932
780.0649,84.1164
781.0291,83.9125
781.9933,83.6911
782.9576,83.4658
783.9218,83.2528
784.8860,83.0659
785.8503,82.9112
786.8145,82.7843
787.7787,82.6717
788.7430,82.5568
789.7072,82.4262
790.6714,82.2733
791.6357,82.0985
792.5999,81.9054
793.5641,81.6979
794.5284,81.4772
795.4926,81.2421
796.4568,80.9904
797.4211,80.7208
798.3853,80.4347
799.3495,80.1376
800.3138,79.8385
801.2780,79.5493
802.2422,79.2827
803.2065,79.05
804.1707,78.8584
805.1349,78.7097
806.0992,78.6
807.0634,78.5229
808.0276,78.4725
808.9919,78.4479
809.9561,78.4525
810.9203,78.4925
811.8846,78.572
812.8488,78.6905
813.8130,78.8425
814.7773,79.0201
815.7415,79.2157
816.7057,79.4217
817.6700,79.63
818.6342,79.8299
819.5984,80.0095
820.5627,80.1583
821.5269,80.2706
822.4911,80.3458
823.4554,80.3868
824.4196,80.3976
825.3839,80.3821
826.3481,80.3455
827.3123,80.296
828.2766,80.2437
829.2408,80.1978
830.2050,80.1621
831.1693,80.1329
832.1335,80.1007
833.0977,80.0549
834.0620,79.988
835.0262,79.8991
835.9904,79.7929
836.9547,79.677
837.9189,79.5584
838.8831,79.4397
839.8474,79.3186
840.8116,79.1887
841.7758,79.0427
842.7401,78.877
843.7043,78.6933
844.6685,78.4981
845.6328,78.2989
846.5970,78.1016
847.5612,77.9084
848.5255,77.7204
849.4897,77.5407
850.4539,77.3759
851.4182,77.2353
852.3824,77.1272
853.3466,77.0546
854.3109,77.0137
855.2751,76.9952
856.2393,76.9882
857.2036,76.9828
858.1678,76.9734
859.1320,76.9586
860.0963,76.9411
861.0605,76.9266
862.0247,76.9222
862.9890,76.9349
863.9532,76.9697
864.9174,77.0276
865.8817,77.105
866.8459,77.1945
867.8101,77.288
868.7744,77.38
869.7386,77.4706
870.7028,77.5641
871.6671,77.6642
872.6313,77.7681
873.5955,77.8631
874.5598,77.9301
875.5240,77.9533
876.4882,77.9297
877.4525,77.8735
878.4167,77.8115
879.3809,77.7723
880.3452,77.7747
881.3094,77.8236
882.2736,77.9129
883.2379,78.0328
884.2021,78.1755
885.1663,78.3357
886.1306,78.5096
887.0948,78.693
888.0590,78.8843
889.0233,79.0879
889.9875,79.3162
890.9517,79.5845
891.9160,79.9035
892.8802,80.2718
893.8444,80.6753
894.8087,81.0931
895.7729,81.5066
896.7371,81.9066
897.7014,82.2939
898.6656,82.6744
899.6298,83.0527
900.5941,83.4283
901.5583,83.7956
902.5225,84.147
903.4868,84.4769
904.4510,84.7828
905.4152,85.0647
906.3795,85.3222
907.3437,85.5528
908.3079,85.7521
909.2722,85.9155
910.2364,86.0417
911.2006,86.1344
912.1649,86.2024
913.1291,86.2565
914.0933,86.3059
915.0576,86.3551
916.0218,86.4041
916.9860,86.4513
917.9503,86.4967
918.9145,86.5441
919.8787,86.6007
920.8430,86.6736
921.8072,86.7667
922.7714,86.8778
923.7357,86.9989
924.6999,87.1189
925.6641,87.2264
926.6284,87.315
927.5926,87.3859
928.5568,87.451
929.5211,87.5333
930.4853,87.6646
931.4495,87.8805
932.4138,88.2139
933.3780,88.6874
934.3422,89.3069
935.3065,90.0585
936.2707,90.9092
937.2349,91.8121
938.1992,92.7159
939.1634,93.5766
940.1276,94.3668
941.0919,95.08
942.0561,95.7267
943.0203,96.3245
943.9846,96.8863
944.9488,97.4132
945.9130,97.8946
946.8773,98.3154
947.8415,98.6653
948.8057,98.9441
949.7700,99.1626
950.7342,99.3364
951.6984,99.4799
952.6627,99.6015
953.6269,99.7042
954.5911,99.7873
955.5554,99.8503
956.5196,99.8937
957.4838,99.9187
958.4481,99.9253
959.4123,99.911
960.3765,99.8726
961.3408,99.8082
962.3050,99.7207
963.2692,99.6186
964.2335,99.5141
965.1977,99.419
966.1619,99.341
967.1262,99.282
968.0904,99.2392
969.0546,99.2093
970.0189,99.1906
970.9831,99.184
971.9473,99.1911
972.9116,99.2117
973.8758,99.2484
974.8400,99.3336
975.8043,99.4147
976.7685,99.4847
977.7327,99.5382
978.6970,99.5713
979.6612,99.5818
980.6254,99.5692
981.5897,99.5341
982.5539,99.4776
983.5181,99.4
984.4824,99.3012
985.4466,99.1821
986.4108,99.0461
987.3751,98.9009
988.3393,98.7574
989.3035,98.627
990.2678,98.5184
991.2320,98.4343
992.1962,98.3707
993.1605,98.3186
994.1247,98.268
995.0889,98.2119
996.0532,98.1492
997.0174,98.0842
997.9816,98.0232
998.9459,97.9699
999.9101,97.922
1000.8743,97.8706
1001.8386,97.8032
1002.8028,97.7066
1003.7670,97.5698
1004.7313,97.3836
1005.6955,97.1407
1006.6597,96.8345
1007.6240,96.4599
1008.5882,96.0148
1009.5524,95.5011
1010.5167,94.9268
1011.4809,94.3053
1012.4451,93.6536
1013.4094,92.9878
1014.3736,92.3176
1015.3378,91.6439
1016.3021,90.9615
1017.2663,90.2667
1018.2305,89.562
1019.1948,88.8536
1020.1590,88.139
1021.1232,87.3956
1022.0875,86.5811
1023.0517,85.6533
1024.0160,84.6003
1024.9802,83.4608
1025.9445,82.3188
1026.9087,81.2694
1027.8729,80.3748
1028.8372,79.6362
1029.8014,78.9975
1030.7656,78.3795
1031.7299,77.7209
1032.6941,77.0049
1033.6583,76.261
1034.6226,75.5452
1035.5868,74.9145
1036.5510,74.407
1037.5153,74.0328
1038.4795,73.7755
1039.4437,73.5994
1040.4080,73.4624
1041.3722,73.329
1042.3364,73.1808
1043.3007,73.019
1044.2649,72.8582
1045.2291,72.7154
1046.1934,72.6021
1047.1576,72.5233
1048.1218,72.4839
1049.0861,72.4925
1050.0503,72.5604
1051.0145,72.6915
1051.9788,72.875
1052.9430,73.0864
1053.9072,73.302
1054.8715,73.5175
1055.8357,73.7569
1056.7999,74.0603
1057.7642,74.4527
1058.7284,74.9103
1059.6926,75.3487
1060.6569,75.6471
1061.6211,75.7024
1062.5853,75.4863
1063.5496,75.0697
1064.5138,74.5976
1065.4780,74.2228
1066.4423,74.0335
1067.4065,74.014
1068.3707,74.0596
1069.3350,74.0348
1070.2992,73.8389
1071.2634,73.4449
1072.2277,72.896
1073.1919,72.2696
1074.1561,71.638
1075.1204,71.044
1076.0846,70.5019
1077.0488,70.011
1078.0131,69.5707
1078.9773,69.1851
1079.9415,68.8603
1080.9058,68.5993
1081.8700,68.399
1082.8342,68.2532
1083.7985,68.1567
1084.7627,68.1119
1085.7269,68.1318
1086.6912,68.24
1087.6554,68.4639
1088.6196,68.8229
1089.5839,69.3165
1090.5481,69.9189
1091.5123,70.5857
1092.4766,71.2699
1093.4408,71.9406
1094.4050,72.5929
1095.3693,73.2455
1096.3335,73.9265
1097.2977,74.6575
1098.2620,75.4433
1099.2262,76.2719
1100.1904,77.1208
1101.1547,77.9657
1102.1189,78.7871
1103.0831,79.5736
1104.0474,80.3212
1105.0116,81.0326
1105.9758,81.7142
1106.9401,82.3737
1107.9043,83.0187
1108.8685,83.6568
1109.8328,84.2968
1110.7970,84.951
1111.7612,85.6338
1112.7255,86.3586
1113.6897,87.1332
1114.6539,87.9566
1115.6182,88.8192
1116.5824,89.7062
1117.5466,90.6015
1118.5109,91.4905
1119.4751,92.3606
1120.4393,93.2005
1121.4036,93.9995
1122.3678,94.7495
1123.3320,95.4457
1124.2963,96.0884
1125.2605,96.6808
1126.2247,97.2264
1127.1890,97.7262
1128.1532,98.1771
1129.1174,98.5733
1130.0817,98.9078
1131.0459,99.1746
1132.0101,99.3698
1132.9744,99.4913
1133.9386,99.5386
1134.9028,99.5118
1135.8671,99.4115
1136.8313,99.2274
1137.7955,98.9371
1138.7598,98.5739
1139.7240,98.1417
1140.6882,97.6497
1141.6525,97.1141
1142.6167,96.5572
1143.5809,96.0047
1144.5452,95.4815
1145.5094,95.0077
1146.4736,94.5954
1147.4379,94.2476
1148.4021,93.9592
1149.3663,93.7192
1150.3306,93.5134
1151.2948,93.3272
1152.2590,93.1472
1153.2233,92.9618
1154.1875,92.7615
1155.1517,92.5396
1156.1160,92.2922
1157.0802,92.0186
1158.0444,91.72
1159.0087,91.3977
1159.9729,91.0512
1160.9371,90.6781
1161.9014,90.2755
1162.8656,89.8429
1163.8298,89.3836
1164.7941,88.9042
1165.7583,88.4117
1166.7225,87.9115
1167.6868,87.406
1168.6510,86.8961
1169.6152,86.3824
1170.5795,85.8667
1171.5437,85.3517
1172.5079,84.8396
1173.4722,84.3316
1174.4364,83.8281
1175.4006,83.3298
1176.3649,82.838
1177.3291,82.3539
1178.2933,81.8776
1179.2576,81.4074
1180.2218,80.9398
1181.1860,80.4716
1182.1503,80.0027
1183.1145,79.5365
1184.0787,79.08
1185.0430,78.6416
1186.0072,78.2285
1186.9714,77.8453
1187.9357,77.4938
1188.8999,77.1735
1189.8641,76.883
1190.8284,76.6204
1191.7926,76.3837
1192.7568,76.171
1193.7211,75.9813
1194.6853,75.815
1195.6495,75.674
1196.6138,75.5603
1197.5780,75.474
1198.5422,75.4119
1199.5065,75.3979
1200.4707,75.3595
1201.4349,75.3236
1202.3992,75.2863
1203.3634,75.2472
1204.3276,75.2081
1205.2919,75.171
1206.2561,75.1373
1207.2203,75.1072
1208.1846,75.0805
1209.1488,75.0571
1210.1130,75.0363
1211.0773,75.0168
1212.0415,74.9953
1213.0057,74.9676
1213.9700,74.9295
1214.9342,74.8791
1215.8984,74.8176
1216.8627,74.7489
1217.8269,74.6776
1218.7911,74.6064
1219.7554,74.5356
1220.7196,74.4638
1221.6838,74.3893
1222.6481,74.3112
1223.6123,74.2297
1224.5765,74.1451
1225.5408,74.0575
1226.5050,73.9655
1227.4692,73.8661
1228.4335,73.7543
1229.3977,73.6247
1230.3619,73.4758
1231.3262,73.316
1232.2904,73.1678
1233.2546,73.0654
1234.2189,73.0442
1235.1831,73.128
1236.1473,73.3198
1237.1116,73.6042
1238.0758,73.9599
1239.0400,74.3724
1240.0043,74.8385
1240.9685,75.3556
1241.9327,75.906
1242.8970,76.447
1243.8612,76.9178
1244.8254,77.2622
1245.7897,77.453
1246.7539,77.503
1247.7181,77.4559
1248.6824,77.3652
1249.6466,77.2719
1250.6108,77.1956
1251.5751,77.1372
1252.5393,77.0897
1253.5035,77.0478
1254.4678,77.0108
1255.4320,76.9824
1256.3962,76.9667
1257.3605,76.9683
1258.3247,76.9915
1259.2889,77.0399
1260.2532,77.1142
1261.2174,77.2099
1262.1816,77.3167
1263.1459,77.4199
1264.1101,77.5044
1265.0743,77.557
1266.0386,77.5677
1267.0028,77.5301
1267.9670,77.4404
1268.9313,77.2985
1269.8955,77.1092
1270.8597,76.8836
1271.8240,76.6393
1272.7882,76.3983
1273.7524,76.1819
1274.7167,76.0064
1275.6809,75.8803
1276.6451,75.8037
1277.6094,75.7709
1278.5736,75.7731
1279.5378,75.8021
1280.5021,75.8524
1281.4663,75.9221
1282.4305,76.0127
1283.3948,76.1282
1284.3590,76.274
1285.3232,76.4569
1286.2875,76.6835
1287.2517,76.9583
1288.2159,77.2806
1289.1802,77.6432
1290.1444,78.0324
1291.1086,78.4312
1292.0729,78.8235
1293.0371,79.1965
1294.0013,79.5414
1294.9656,79.8535
1295.9298,80.1305
1296.8940,80.3729
1297.8583,80.5838
1298.8225,80.7683
1299.7867,80.9332
1300.7510,81.0856
1301.7152,81.232
1302.6794,81.3781
1303.6437,81.5293
1304.6079,81.6893
1305.5721,81.86
1306.5364,82.0402
1307.5006,82.2264
1308.4648,82.4152
1309.4291,82.6056
1310.3933,82.7995
1311.3575,82.9998
1312.3218,83.2067
1313.2860,83.4163
1314.2502,83.6218
1315.2145,83.818
1316.1787,84.0047
1317.1429,84.1861
1318.1072,84.3669
1319.0714,84.5477
1320.0356,84.7243
1320.9999,84.8904
1321.9641,85.0424
1322.9283,85.1814
1323.8926,85.3117
1324.8568,85.4371
1325.8210,85.5588
1326.7853,85.6753
1327.7495,85.7848
1328.7137,85.8867
1329.6780,85.9817
1330.6422,86.0698
1331.6064,86.1473
1332.5707,86.2067
1333.5349,86.2389
1334.4991,86.2377
1335.4634,86.2045
1336.4276,86.1511
1337.3918,86.1006
1338.3561,86.0809
1339.3203,86.107
1340.2845,86.1661
1341.2488,86.2239
1342.2130,86.2491
1343.1772,86.2276
1344.1415,86.1609
1345.1057,86.0583
1346.0699,85.9319
1347.0342,85.794
1347.9984,85.6544
1348.9626,85.5176
1349.9269,85.3832
1350.8911,85.2484
1351.8553,85.1122
1352.8196,84.9777
1353.7838,84.8521
1354.7480,84.7419
1355.7123,84.649
1356.6765,84.5689
1357.6407,84.4944
1358.6050,84.4212
1359.5692,84.3521
1360.5334,84.2989
1361.4977,84.2786
1362.4619,84.2975
1363.4261,84.3379
1364.3904,84.3682
1365.3546,84.3655
1366.3188,84.3248
1367.2831,84.2513
1368.2473,84.1514
1369.2115,84.0278
1370.1758,83.8788
1371.1400,83.7002
1372.1042,83.4913
1373.0685,83.2625
1374.0327,83.0381
1374.9969,82.8443
1375.9612,82.6935
1376.9254,82.5845
1377.8896,82.5193
1378.8539,82.5121
1379.8181,82.5828
1380.7823,82.7415
1381.7466,82.9804
1382.7108,83.2831
1383.6750,83.6446
1384.6393,84.0792
1385.6035,84.603
1386.5677,85.1908
1387.5320,85.7457
1388.4962,86.1401
1389.4604,86.3064
1390.4247,86.2703
1391.3889,86.1154
1392.3531,85.9436
1393.3174,85.8567
1394.2816,85.9317
1395.2458,86.1776
1396.2101,86.5096
1397.1743,86.7929
1398.1385,86.9277
1399.1028,86.8938
1400.0670,86.7332
1401.0313,86.5065
1401.9955,86.2636
1402.9597,86.0371
1403.9240,85.848
1404.8882,85.7098
1405.8524,85.6252
1406.8167,85.5849
1407.7809,85.5768
1408.7451,85.5972
1409.7094,85.6499
1410.6736,85.7346
1411.6378,85.8377
1412.6021,85.9359
1413.5663,86.0121
1414.5305,86.0667
1415.4948,86.1129
1416.4590,86.1664
1417.4232,86.2368
1418.3875,86.3153
1419.3517,86.3608
1420.3159,86.3235
1421.2802,86.1895
1422.2444,85.9831
1423.2086,85.7374
1424.1729,85.4749
1425.1371,85.2055
1426.1013,84.9276
1427.0656,84.6305
1428.0298,84.3007
1428.9940,83.9341
1429.9583,83.5485
1430.9225,83.179
1431.8867,82.8571
1432.8510,82.5943
1433.8152,82.3796
1434.7794,82.19
1435.7437,82.0078
1436.7079,81.828
1437.6721,81.644
1438.6364,81.4436
1439.6006,81.2296
1440.5648,81.0215
1441.5291,80.8375
1442.4933,80.6826
1443.4575,80.5493
1444.4218,80.424
1445.3860,80.2947
1446.3502,80.155
1447.3145,80.0025
1448.2787,79.8339
1449.2429,79.6437
1450.2072,79.4321
1451.1714,79.2132
1452.1356,79.0101
1453.0999,78.8408
1454.0641,78.7076
1455.0283,78.6127
1455.9926,78.6101
1456.9568,78.7972
1457.9210,79.1102
1458.8853,79.3235
1459.8495,79.3644
1460.8137,79.3266
1461.7780,79.3211
1462.7422,79.4258
1463.7064,79.688
1464.6707,80.106
1465.6349,80.6018
1466.5991,81.0698
1467.5634,81.4708
1468.5276,81.8452
1469.4918,82.2627
1470.4561,82.7902
1471.4203,83.488
1472.3845,84.3775
1473.3488,85.3577
1474.3130,86.2217
1475.2772,86.8449
1476.2415,87.2571
1477.2057,87.5482
1478.1699,87.7941
1479.1342,88.0455
1480.0984,88.3342
1481.0626,88.6717
1482.0269,89.0442
1482.9911,89.4167
1483.9553,89.7509
1484.9196,90.0217
1485.8838,90.223
1486.8480,90.3706
1487.8123,90.5134
1488.7765,90.7169
1489.7407,90.9838
1490.7050,91.2227
1491.6692,91.3576
1492.6334,91.3916
1493.5977,91.3604
1494.5619,91.28
1495.5261,91.1404
1496.4904,90.9308
1497.4546,90.6669
1498.4188,90.3758
1499.3831,90.0726
1500.3473,89.7775
1501.3115,89.5281
1502.2758,89.3577
1503.2400,89.2672
1504.2042,89.2065
1505.1685,89.0878
1506.1327,88.8908
1507.0969,88.7761
1508.0612,88.8221
1509.0254,88.8488
1509.9896,88.7657
1510.9539,88.6274
1511.9181,88.5014
1512.8823,88.4296
1513.8466,88.443
1514.8108,88.5715
1515.7750,88.8297
1516.7393,89.198
1517.7035,89.6344
1518.6677,90.1174
1519.6320,90.67
1520.5962,91.3236
1521.5604,92.0472
1522.5247,92.746
1523.4889,93.356
1524.4531,93.9032
1525.4174,94.4505
1526.3816,95.0149
1527.3458,95.5493
1528.3101,95.997
1529.2743,96.3491
1530.2385,96.6505
1531.2028,96.9709
1532.1670,97.3654
1533.1312,97.8267
1534.0955,98.2737
1535.0597,98.6278
1536.0239,98.8845
1536.9882,99.0796
1537.9524,99.2173
1538.9166,99.2618
1539.8809,99.2481
1540.8451,99.3668
1541.8093,99.6829
1542.7736,100.01
1543.7378,100.236
1544.7020,100.368
1545.6663,100.429
1546.6305,100.429
1547.5947,100.384
1548.5590,100.315
1549.5232,100.243
1550.4874,100.178
1551.4517,100.099
1552.4159,100
1553.3801,99.895
1554.3444,99.812
1555.3086,99.7653
1556.2728,99.7286
1557.2371,99.6685
1558.2013,99.644
1559.1655,99.6888
1560.1298,99.5949
1561.0940,99.2587
1562.0582,98.8048
1563.0225,98.3692
1563.9867,98.0131
1564.9509,97.737
1565.9152,97.5052
1566.8794,97.2654
1567.8436,96.973
1568.8079,96.6192
1569.7721,96.2353
1570.7363,95.863
1571.7006,95.5265
1572.6648,95.2216
1573.6290,94.9067
1574.5933,94.5146
1575.5575,94.0107
1576.5217,93.4523
1577.4860,92.928
1578.4502,92.4546
1579.4144,92.0016
1580.3787,91.5438
1581.3429,91.0659
1582.3071,90.5603
1583.2714,90.0309
1584.2356,89.4903
1585.1998,88.9474
1586.1641,88.4017
1587.1283,87.849
1588.0925,87.2901
1589.0568,86.7316
1590.0210,86.1813
1590.9852,85.6436
1591.9495,85.1218
1592.9137,84.625
1593.8779,84.1703
1594.8422,83.7755
1595.8064,83.4477
1596.7706,83.179
1597.7349,82.9527
1598.6991,82.7538
1599.6633,82.576
1600.6276,82.4214
1601.5918,82.2967
1602.5560,82.2071
1603.5203,82.1523
1604.4845,82.1282
1605.4487,82.1334
1606.4130,82.1752
1607.3772,82.267
1608.3414,82.4153
1609.3057,82.6041
1610.2699,82.797
1611.2341,82.9643
1612.1984,83.1047
1613.1626,83.2425
1614.1268,83.4146
1615.0911,83.6627
1616.0553,84.0046
1617.0195,84.377
1617.9838,84.6659
1618.9480,84.8326
1619.9122,84.9411
1620.8765,85.0819
1621.8407,85.3136
1622.8049,85.6421
1623.7692,86.0202
1624.7334,86.3848
1625.6976,86.7129
1626.6619,87.0314
1627.6261,87.3704
1628.5903,87.7228
1629.5546,88.0532
1630.5188,88.3398
1631.4830,88.595
1632.4473,88.8477
1633.4115,89.1214
1634.3757,89.4405
1635.3400,89.8373
1636.3042,90.2783
1637.2684,90.6328
1638.2327,90.8327
1639.1969,90.9311
1640.1611,91.0064
1641.1254,91.1024
1642.0896,91.2271
1643.0538,91.36
1644.0181,91.459
1644.9823,91.4835
1645.9465,91.4439
1646.9108,91.4077
1647.8750,91.421
1648.8392,91.4912
1649.8035,91.6232
1650.7677,91.7957
1651.7319,91.9357
1652.6962,91.978
1653.6604,91.9196
1654.6246,91.7162
1655.5889,91.3526
1656.5531,90.9377
1657.5173,90.5816
1658.4816,90.3216
1659.4458,90.1317
1660.4100,89.9573
1661.3743,89.7569
1662.3385,89.5281
1663.3027,89.2914
1664.2670,89.0638
1665.2312,88.8514
1666.1954,88.6445
1667.1597,88.415
1668.1239,88.136
1669.0881,87.8243
1670.0524,87.5433
1671.0166,87.3382
1671.9808,87.2001
1672.9451,87.0977
1673.9093,86.9979
1674.8735,86.8646
1675.8378,86.6647
1676.8020,86.3901
1677.7662,86.0731
1678.7305,85.7734
1679.6947,85.5419
1680.6589,85.3907
1681.6232,85.2865
1682.5874,85.1792
1683.5516,85.0528
1684.5159,84.9048
1685.4801,84.6907
1686.4443,84.3903
1687.4086,84.0465
1688.3728,83.715
1689.3370,83.4294
1690.3013,83.2
1691.2655,83.0189
1692.2297,82.8615
1693.1940,82.6884
1694.1582,82.4581
1695.1224,82.1548
1696.0867,81.8228
1697.0509,81.5671
1698.0151,81.4835
1698.9794,81.5552
1699.9436,81.6445
1700.9078,81.6183
1701.8721,81.4598
1702.8363,81.2534
1703.8005,81.1069
1704.7648,81.0941
1705.7290,81.2275
1706.6932,81.4578
1707.6575,81.7085
1708.6217,81.9303
1709.5859,82.1247
1710.5502,82.3205
1711.5144,82.5414
1712.4786,82.792
1713.4429,83.0689
1714.4071,83.3941
1715.3713,83.851
1716.3356,84.5455
1717.2998,85.421
1718.2640,86.2076
1719.2283,86.7209
1720.1925,87.016
1721.1567,87.2442
1722.1210,87.5181
1723.0852,87.8748
1724.0494,88.2897
1725.0137,88.7087
1725.9779,89.0863
1726.9421,89.4073
1727.9064,89.6862
1728.8706,89.9507
1729.8348,90.2289
1730.7991,90.5467
1731.7633,90.9317
1732.7275,91.4006
1733.6918,91.9001
1734.6560,92.2933
1735.6202,92.4939
1736.5845,92.5552
1737.5487,92.5922
1738.5129,92.6877
1739.4772,92.8615
1740.4414,93.0809
1741.4056,93.2912
1742.3699,93.4546
1743.3341,93.5713
1744.2983,93.6671
1745.2626,93.769
1746.2268,93.8939
1747.1910,94.0582
1748.1553,94.2879
1749.1195,94.602
1750.0837,94.9658
1751.0480,95.2891
1752.0122,95.5032
1752.9764,95.6138
1753.9407,95.6744
1754.9049,95.7369
1755.8691,95.8272
1756.8334,95.9452
1757.7976,96.0788
1758.7618,96.2198
1759.7261,96.3712
1760.6903,96.5393
1761.6545,96.7193
1762.6188,96.8919
1763.5830,97.0374
1764.5472,97.1542
1765.5115,97.2568
1766.4757,97.3602
1767.4399,97.4666
1768.4042,97.566
1769.3684,97.6501
1770.3326,97.73
1771.2969,97.8397
1772.2611,97.9996
1773.2253,98.1765
1774.1896,98.3114
1775.1538,98.3855
1776.1180,98.4267
1777.0823,98.473
1778.0465,98.5446
1779.0107,98.6404
1779.9750,98.7486
1780.9392,98.8581
1781.9034,98.9642
1782.8677,99.0643
1783.8319,99.1521
1784.7961,99.2163
1785.7604,99.2502
1786.7246,99.2603
1787.6888,99.2649
1788.6531,99.2797
1789.6173,99.3051
1790.5815,99.3314
1791.5458,99.3537
1792.5100,99.3727
1793.4742,99.3769
1794.4385,99.3552
1795.4027,99.3198
1796.3669,99.2971
1797.3312,99.3031
1798.2954,99.3353
1799.2596,99.3814
1800.2239,99.4293
1801.1881,99.47
1802.1523,99.4966
1803.1166,99.5058
1804.0808,99.5
1805.0450,99.4845
1806.0093,99.463
1806.9735,99.4373
1807.9377,99.4091
1808.9020,99.3842
1809.8662,99.3718
1810.8304,99.3774
1811.7947,99.4134
1812.7589,99.466
1813.7231,99.5149
1814.6874,99.5581
1815.6516,99.5956
1816.6158,99.6267
1817.5801,99.6499
1818.5443,99.6651
1819.5085,99.676
1820.4728,99.6884
1821.4370,99.707
1822.4012,99.7311
1823.3655,99.7546
1824.3297,99.7686
1825.2939,99.7668
1826.2582,99.7492
1827.2224,99.7257
1828.1866,99.7138
1829.1509,99.7302
1830.1151,99.7751
1831.0793,99.8259
1832.0436,99.856
1833.0078,99.8597
1833.9720,99.85
1834.9363,99.8416
1835.9005,99.8401
1836.8647,99.8434
1837.8290,99.8492
1838.7932,99.8603
1839.7574,99.8839
1840.7217,99.923
1841.6859,99.968
1842.6501,100.001
1843.6144,100.014
1844.5786,100.009
1845.5428,99.9932
1846.5071,99.9697
1847.4713,99.9496
1848.4355,99.9459
1849.3998,99.9623
1850.3640,99.9909
1851.3282,100.019
1852.2925,100.037
1853.2567,100.045
1854.2209,100.046
1855.1852,100.044
1856.1494,100.04
1857.1136,100.036
1858.0779,100.033
1859.0421,100.033
1860.0063,100.037
1860.9706,100.04
1861.9348,100.036
1862.8990,100.02
1863.8633,99.9905
1864.8275,99.9528
1865.7917,99.9133
1866.7560,99.8852
1867.7202,99.8904
1868.6844,99.9413
1869.6487,100.017
1870.6129,100.079
1871.5771,100.107
1872.5414,100.11
1873.5056,100.106
1874.4698,100.104
1875.4341,100.108
1876.3983,100.112
1877.3625,100.115
1878.3268,100.117
1879.2910,100.118
1880.2552,100.117
1881.2195,100.114
1882.1837,100.107
1883.1479,100.094
1884.1122,100.079
1885.0764,100.066
1886.0406,100.058
1887.0049,100.057
1887.9691,100.063
1888.9333,100.072
1889.8976,100.079
1890.8618,100.078
1891.8260,100.068
1892.7903,100.052
1893.7545,100.039
1894.7188,100.035
1895.6830,100.044
1896.6472,100.061
1897.6115,100.078
1898.5757,100.087
1899.5399,100.088
1900.5042,100.083
1901.4684,100.074
1902.4326,100.065
1903.3969,100.054
1904.3611,100.039
1905.3253,100.018
1906.2896,99.9941
1907.2538,99.9715
1908.2180,99.9586
1909.1823,99.9604
1910.1465,99.9745
1911.1107,99.9923
1912.0750,100.006
1913.0392,100.014
1914.0034,100.02
1914.9677,100.029
1915.9319,100.04
1916.8961,100.047
1917.8604,100.042
1918.8246,100.02
1919.7888,99.9846
1920.7531,99.9465
1921.7173,99.922
1922.6815,99.9216
1923.6458,99.9442
1924.6100,99.9778
1925.5742,100.008
1926.5385,100.028
1927.5027,100.036
1928.4669,100.038
1929.4312,100.036
1930.3954,100.035
1931.3596,100.035
1932.3239,100.037
1933.2881,100.045
1934.2523,100.057
1935.2166,100.072
1936.1808,100.085
1937.1450,100.092
1938.1093,100.093
1939.0735,100.086
1940.0377,100.075
1941.0020,100.063
1941.9662,100.054
1942.9304,100.055
1943.8947,100.063
1944.8589,100.077
1945.8231,100.095
1946.7874,100.118
1947.7516,100.143
1948.7158,100.168
1949.6801,100.188
1950.6443,100.2
1951.6085,100.205
1952.5728,100.207
1953.5370,100.21
1954.5012,100.217
1955.4655,100.228
1956.4297,100.241
1957.3939,100.252
1958.3582,100.263
1959.3224,100.272
1960.2866,100.279
1961.2509,100.283
1962.2151,100.281
1963.1793,100.274
1964.1436,100.264
1965.1078,100.256
1966.0720,100.254
1967.0363,100.265
1968.0005,100.285
1968.9647,100.309
1969.9290,100.33
1970.8932,100.344
1971.8574,100.352
1972.8217,100.354
1973.7859,100.353
1974.7501,100.351
1975.7144,100.349
1976.6786,100.349
1977.6428,100.352
1978.6071,100.357
1979.5713,100.363
1980.5355,100.369
1981.4998,100.372
1982.4640,100.373
1983.4282,100.369
1984.3925,100.362
1985.3567,100.352
1986.3209,100.34
1987.2852,100.328
1988.2494,100.318
1989.2136,100.31
1990.1779,100.305
1991.1421,100.306
1992.1063,100.312
1993.0706,100.32
1994.0348,100.328
1994.9990,100.332
1995.9633,100.332
1996.9275,100.33
1997.8917,100.326
1998.8560,100.323
1999.8202,100.322
2000.7844,100.323
2001.7487,100.326
2002.7129,100.327
2003.6771,100.325
2004.6414,100.318
2005.6056,100.308
2006.5698,100.297
2007.5341,100.289
2008.4983,100.285
2009.4625,100.285
2010.4268,100.287
2011.3910,100.288
2012.3552,100.283
2013.3195,100.272
2014.2837,100.257
2015.2479,100.241
2016.2122,100.229
2017.1764,100.226
2018.1406,100.23
2019.1049,100.238
2020.0691,100.246
2021.0333,100.252
2021.9976,100.254
2022.9618,100.253
2023.9260,100.253
2024.8903,100.253
2025.8545,100.254
2026.8187,100.255
2027.7830,100.255
2028.7472,100.254
2029.7114,100.251
2030.6757,100.248
2031.6399,100.245
2032.6041,100.243
2033.5684,100.245
2034.5326,100.249
2035.4968,100.255
2036.4611,100.261
2037.4253,100.263
2038.3895,100.261
2039.3538,100.258
2040.3180,100.256
2041.2822,100.258
2042.2465,100.266
2043.2107,100.276
2044.1749,100.286
2045.1392,100.294
2046.1034,100.299
2047.0676,100.302
2048.0320,100.303
2048.9961,100.304
2049.9604,100.306
2050.9246,100.309
2051.8889,100.312
2052.8530,100.314
2053.8174,100.316
2054.7815,100.317
2055.7458,100.316
2056.7100,100.315
2057.6743,100.315
2058.6384,100.316
2059.6028,100.317
2060.5669,100.317
2061.5313,100.313
2062.4954,100.308
2063.4597,100.303
2064.4238,100.303
2065.3882,100.307
2066.3523,100.317
2067.3167,100.328
2068.2808,100.338
2069.2451,100.345
2070.2092,100.349
2071.1736,100.351
2072.1377,100.353
2073.1021,100.355
2074.0662,100.358
2075.0305,100.361
2075.9946,100.363
2076.9590,100.364
2077.9231,100.363
2078.8875,100.361
2079.8516,100.358
2080.8159,100.355
2081.7800,100.353
2082.7444,100.351
2083.7085,100.35
2084.6729,100.349
2085.6370,100.35
2086.6013,100.352
2087.5654,100.355
2088.5298,100.358
2089.4939,100.36
2090.4583,100.359
2091.4224,100.356
2092.3867,100.353
2093.3508,100.351
2094.3152,100.352
2095.2793,100.358
2096.2437,100.365
2097.2078,100.371
2098.1721,100.375
2099.1362,100.376
2100.1006,100.373
2101.0647,100.369
2102.0291,100.367
2102.9932,100.366
2103.9575,100.368
2104.9216,100.37
2105.8860,100.371
2106.8501,100.37
2107.8145,100.367
2108.7786,100.362
2109.7429,100.356
2110.7070,100.35
2111.6714,100.346
2112.6355,100.345
2113.5999,100.347
2114.5640,100.352
2115.5283,100.358
2116.4924,100.363
2117.4568,100.366
2118.4209,100.367
2119.3853,100.366
2120.3494,100.364
2121.3137,100.363
2122.2778,100.362
2123.2422,100.361
2124.2063,100.359
2125.1707,100.357
2126.1348,100.355
2127.0991,100.356
2128.0632,100.36
2129.0276,100.367
2129.9917,100.375
2130.9561,100.38
2131.9202,100.38
2132.8845,100.376
2133.8486,100.37
2134.8130,100.364
2135.7771,100.364
2136.7415,100.368
2137.7056,100.378
2138.6699,100.39
2139.6340,100.4
2140.5984,100.407
2141.5625,100.411
2142.5269,100.412
2143.4910,100.414
2144.4553,100.416
2145.4194,100.421
2146.3838,100.426
2147.3479,100.431
2148.3123,100.434
2149.2764,100.434
2150.2407,100.431
2151.2048,100.426
2152.1692,100.421
2153.1333,100.418
2154.0977,100.417
2155.0618,100.419
2156.0261,100.423
2156.9902,100.427
2157.9546,100.43
2158.9187,100.433
2159.8831,100.436
2160.8472,100.439
2161.8115,100.443
2162.7756,100.448
2163.7400,100.452
2164.7041,100.453
2165.6685,100.452
2166.6326,100.448
2167.5969,100.442
2168.5610,100.435
2169.5254,100.429
2170.4895,100.425
2171.4539,100.423
2172.4180,100.425
2173.3823,100.429
2174.3464,100.433
2175.3108,100.437
2176.2749,100.438
2177.2393,100.438
2178.2034,100.436
2179.1677,100.432
2180.1318,100.427
2181.0962,100.421
2182.0603,100.415
2183.0247,100.409
2183.9888,100.404
2184.9531,100.402
2185.9172,100.402
2186.8816,100.405
2187.8457,100.409
2188.8101,100.413
2189.7742,100.415
2190.7385,100.417
2191.7026,100.417
2192.6670,100.416
2193.6311,100.414
2194.5955,100.412
2195.5596,100.41
2196.5239,100.407
2197.4880,100.404
2198.4524,100.401
2199.4165,100.397
2200.3809,100.394
2201.3450,100.392
2202.3093,100.392
2203.2734,100.392
2204.2378,100.391
2205.2019,100.389
2206.1663,100.385
2207.1304,100.381
2208.0947,100.379
2209.0588,100.378
2210.0232,100.379
2210.9873,100.379
2211.9517,100.374
2212.9158,100.365
2213.8801,100.355
2214.8442,100.345
2215.8086,100.339
2216.7727,100.336
2217.7371,100.334
2218.7012,100.332
2219.6655,100.326
2220.6296,100.319
2221.5940,100.313
2222.5581,100.309
2223.5225,100.308
2224.4866,100.31
2225.4509,100.31
2226.4150,100.307
2227.3794,100.3
2228.3435,100.29
2229.3079,100.279
2230.2720,100.269
2231.2363,100.262
2232.2004,100.256
2233.1648,100.252
2234.1289,100.247
2235.0933,100.243
2236.0574,100.24
2237.0217,100.237
2237.9858,100.233
2238.9502,100.228
2239.9143,100.22
2240.8787,100.21
2241.8428,100.198
2242.8071,100.188
2243.7712,100.18
2244.7356,100.173
2245.6997,100.165
2246.6641,100.156
2247.6282,100.145
2248.5925,100.134
2249.5566,100.124
2250.5210,100.114
2251.4851,100.105
2252.4495,100.095
2253.4136,100.083
2254.3779,100.068
2255.3420,100.051
2256.3064,100.033
2257.2705,100.015
2258.2349,99.9987
2259.1990,99.9852
2260.1633,99.9745
2261.1274,99.9655
2262.0918,99.9572
2263.0559,99.9488
2264.0203,99.9403
2264.9844,99.9327
2265.9487,99.9265
2266.9128,99.9211
2267.8772,99.9152
2268.8413,99.9076
2269.8057,99.8979
2270.7698,99.8878
2271.7341,99.8797
2272.6982,99.8752
2273.6626,99.8744
2274.6267,99.8753
2275.5911,99.8762
2276.5552,99.8761
2277.5195,99.8759
2278.4836,99.8773
2279.4480,99.8814
2280.4121,99.8873
2281.3765,99.8926
2282.3406,99.8936
2283.3049,99.8876
2284.2690,99.8732
2285.2334,99.851
2286.1975,99.8233
2287.1619,99.7931
2288.1260,99.7632
2289.0903,99.7351
2290.0544,99.7089
2291.0188,99.6841
2291.9829,99.6609
2292.9473,99.6402
2293.9114,99.6233
2294.8757,99.6115
2295.8398,99.6049
2296.8042,99.6033
2297.7683,99.6069
2298.7327,99.6177
2299.6968,99.6385
2300.6611,99.671
2301.6252,99.7138
2302.5896,99.7611
2303.5537,99.8044
2304.5181,99.8355
2305.4822,99.8507
2306.4465,99.8537
2307.4106,99.8541
2308.3750,99.8646
2309.3391,99.8943
2310.3035,99.9444
2311.2676,100.008
2312.2319,100.072
2313.1960,100.126
2314.1604,100.168
2315.1245,100.204
2316.0889,100.242
2317.0530,100.292
2318.0173,100.357
2318.9814,100.426
2319.9458,100.479
2320.9099,100.487
2321.8743,100.425
2322.8384,100.289
2323.8027,100.1
2324.7668,99.9024
2325.7312,99.7481
2326.6953,99.6738
2327.6597,99.6865
2328.6238,99.7593
2329.5881,99.8403
2330.5522,99.8757
2331.5166,99.8352
2332.4807,99.7257
2333.4451,99.5829
2334.4092,99.4497
2335.3735,99.3539
2336.3376,99.2984
2337.3020,99.2647
2338.2661,99.2252
2339.2305,99.1612
2340.1946,99.0793
2341.1589,99.0219
2342.1230,99.058
2343.0874,99.2297
2344.0515,99.4701
2345.0159,99.6194
2345.9800,99.5766
2346.9443,99.39
2347.9084,99.1922
2348.8728,99.0943
2349.8369,99.1313
2350.8013,99.2551
2351.7654,99.363
2352.7297,99.3595
2353.6938,99.2266
2354.6582,99.0309
2355.6223,98.8451
2356.5867,98.6855
2357.5508,98.5364
2358.5151,98.4002
2359.4792,98.2994
2360.4436,98.247
2361.4077,98.2388
2362.3721,98.276
2363.3362,98.3771
2364.3005,98.559
2365.2646,98.8126
2366.2290,99.1017
2367.1931,99.3855
2368.1575,99.6474
2369.1216,99.8792
2370.0859,100.075
2371.0500,100.235
2372.0144,100.356
2372.9785,100.431
2373.9429,100.455
2374.9070,100.427
2375.8713,100.35
2376.8354,100.236
2377.7998,100.098
2378.7639,99.9524
2379.7283,99.8125
2380.6924,99.6904
2381.6567,99.594
2382.6208,99.5267
2383.5852,99.4874
2384.5493,99.4707
2385.5137,99.4692
2386.4778,99.4755
2387.4421,99.4841
2388.4063,99.4915
2389.3706,99.4966
2390.3347,99.4994
2391.2991,99.5004
2392.2632,99.5003
2393.2275,99.5004
2394.1917,99.5019
2395.1560,99.5058
2396.1201,99.5127
2397.0845,99.5221
2398.0486,99.5324
2399.0129,99.5419
2399.9771,99.5489
2400.9414,99.5522
2401.9055,99.5518
2402.8699,99.5487
2403.8340,99.5445
2404.7983,99.5415
2405.7625,99.5414
2406.7268,99.5446
2407.6909,99.5506
2408.6553,99.5579
2409.6194,99.5649
2410.5837,99.5712
2411.5479,99.577
2412.5122,99.5831
2413.4763,99.5898
2414.4407,99.597
2415.4048,99.6034
2416.3691,99.6082
2417.3333,99.6111
2418.2976,99.6132
2419.2617,99.6161
2420.2261,99.6211
2421.1902,99.6286
2422.1545,99.6373
2423.1187,99.6459
2424.0830,99.653
2425.0471,99.6587
2426.0115,99.6638
2426.9756,99.6695
2427.9399,99.6764
2428.9041,99.6841
2429.8684,99.6917
2430.8325,99.698
2431.7969,99.7025
2432.7610,99.7053
2433.7253,99.7073
2434.6895,99.7095
2435.6538,99.713
2436.6179,99.7186
2437.5823,99.7263
2438.5464,99.7355
2439.5107,99.7449
2440.4749,99.7535
2441.4392,99.7607
2442.4033,99.7662
2443.3677,99.7706
2444.3318,99.7743
2445.2961,99.7777
2446.2603,99.7805
2447.2246,99.7826
2448.1887,99.7835
2449.1531,99.7837
2450.1172,99.7839
2451.0815,99.7854
2452.0457,99.7895
2453.0100,99.7963
2453.9741,99.8051
2454.9385,99.8134
2455.9026,99.8189
2456.8669,99.8198
2457.8311,99.8164
2458.7954,99.8106
2459.7595,99.8056
2460.7239,99.8042
2461.6880,99.8076
2462.6523,99.8152
2463.6165,99.825
2464.5808,99.8346
2465.5449,99.8421
2466.5093,99.8464
2467.4734,99.8469
2468.4377,99.8439
2469.4019,99.8386
2470.3662,99.8329
2471.3303,99.8296
2472.2947,99.831
2473.2588,99.838
2474.2231,99.8495
2475.1873,99.8622
2476.1516,99.873
2477.1157,99.8798
2478.0801,99.8831
2479.0442,99.8853
2480.0085,99.8887
2480.9727,99.8945
2481.9370,99.9015
2482.9011,99.9076
2483.8655,99.9112
2484.8296,99.9128
2485.7939,99.9146
2486.7581,99.9189
2487.7224,99.9269
2488.6865,99.9371
2489.6509,99.9463
2490.6150,99.951
2491.5793,99.9497
2492.5435,99.9435
2493.5078,99.9356
2494.4719,99.9301
2495.4363,99.9301
2496.4004,99.9363
2497.3647,99.9468
2498.3289,99.9583
2499.2932,99.9677
2500.2573,99.9733
2501.2217,99.9756
2502.1858,99.9761
2503.1501,99.9764
2504.1143,99.977
2505.0786,99.9769
2506.0427,99.9747
2507.0071,99.9696
2507.9712,99.9623
2508.9355,99.9547
2509.8997,99.9489
2510.8640,99.946
2511.8281,99.9461
2512.7925,99.9485
2513.7566,99.9524
2514.7209,99.9578
2515.6851,99.9645
2516.6494,99.9718
2517.6135,99.9779
2518.5779,99.9808
2519.5420,99.9788
2520.5063,99.9725
2521.4705,99.9639
2522.4348,99.9565
2523.3989,99.9524
2524.3633,99.9522
2525.3274,99.9549
2526.2917,99.9583
2527.2559,99.9609
2528.2202,99.962
2529.1843,99.9617
2530.1487,99.9601
2531.1128,99.9571
2532.0771,99.9529
2533.0413,99.9479
2534.0056,99.943
2534.9697,99.9391
2535.9341,99.9371
2536.8982,99.9373
2537.8625,99.94
2538.8267,99.9449
2539.7910,99.9515
2540.7551,99.9584
2541.7195,99.9638
2542.6836,99.9659
2543.6479,99.9639
2544.6121,99.959
2545.5764,99.9534
2546.5405,99.9496
2547.5049,99.9488
2548.4690,99.9504
2549.4333,99.9529
2550.3975,99.9552
2551.3618,99.9569
2552.3259,99.9587
2553.2903,99.9611
2554.2544,99.9645
2555.2188,99.9685
2556.1829,99.9729
2557.1472,99.978
2558.1113,99.9843
2559.0757,99.9919
2560.0398,99.9993
2561.0042,100.004
2561.9683,100.005
2562.9326,99.9998
2563.8967,99.992
2564.8611,99.9848
2565.8252,99.982
2566.7896,99.9853
2567.7537,99.9939
2568.7180,100.005
2569.6821,100.015
2570.6465,100.021
2571.6106,100.025
2572.5750,100.026
2573.5391,100.027
2574.5034,100.027
2575.4675,100.028
2576.4319,100.029
2577.3960,100.031
2578.3604,100.036
2579.3245,100.043
2580.2888,100.052
2581.2529,100.062
2582.2173,100.073
2583.1814,100.082
2584.1458,100.089
2585.1099,100.094
2586.0742,100.097
2587.0383,100.098
2588.0027,100.097
2588.9668,100.096
2589.9312,100.096
2590.8953,100.097
2591.8596,100.098
2592.8237,100.099
2593.7881,100.099
2594.7522,100.098
2595.7166,100.096
2596.6807,100.095
2597.6450,100.095
2598.6091,100.097
2599.5735,100.101
2600.5376,100.107
2601.5020,100.113
2602.4661,100.118
2603.4304,100.121
2604.3945,100.122
2605.3589,100.123
2606.3230,100.124
2607.2874,100.128
2608.2515,100.136
2609.2158,100.145
2610.1799,100.152
2611.1443,100.156
2612.1084,100.154
2613.0728,100.148
2614.0369,100.14
2615.0012,100.136
2615.9653,100.137
2616.9297,100.145
2617.8938,100.155
2618.8582,100.164
2619.8223,100.17
2620.7866,100.172
2621.7507,100.171
2622.7151,100.17
2623.6792,100.169
2624.6436,100.171
2625.6077,100.175
2626.5720,100.18
2627.5361,100.186
2628.5005,100.19
2629.4646,100.195
2630.4290,100.199
2631.3931,100.203
2632.3574,100.207
2633.3215,100.212
2634.2859,100.218
2635.2500,100.225
2636.2144,100.233
2637.1785,100.24
2638.1428,100.246
2639.1069,100.251
2640.0713,100.255
2641.0354,100.26
2641.9998,100.265
2642.9639,100.272
2643.9282,100.279
2644.8923,100.286
2645.8567,100.291
2646.8208,100.294
2647.7852,100.296
2648.7493,100.297
2649.7136,100.297
2650.6777,100.298
2651.6421,100.298
2652.6062,100.3
2653.5706,100.305
2654.5347,100.312
2655.4990,100.321
2656.4631,100.33
2657.4275,100.337
2658.3916,100.34
2659.3560,100.339
2660.3201,100.336
2661.2844,100.333
2662.2485,100.334
2663.2129,100.337
2664.1770,100.344
2665.1414,100.353
2666.1055,100.364
2667.0698,100.375
2668.0339,100.385
2668.9983,100.393
2669.9624,100.399
2670.9268,100.406
2671.8909,100.414
2672.8552,100.426
2673.8193,100.441
2674.7837,100.456
2675.7478,100.469
2676.7122,100.478
2677.6763,100.481
2678.6406,100.479
2679.6047,100.475
2680.5691,100.47
2681.5332,100.466
2682.4976,100.464
2683.4617,100.463
2684.4260,100.464
2685.3901,100.465
2686.3545,100.466
2687.3186,100.464
2688.2830,100.462
2689.2471,100.46
2690.2114,100.462
2691.1755,100.468
2692.1399,100.479
2693.1040,100.492
2694.0684,100.505
2695.0325,100.514
2695.9968,100.519
2696.9609,100.52
2697.9253,100.518
2698.8894,100.515
2699.8538,100.512
2700.8179,100.51
2701.7822,100.508
2702.7463,100.506
2703.7107,100.507
2704.6748,100.507
2705.6392,100.508
2706.6033,100.506
2707.5676,100.502
2708.5317,100.496
2709.4961,100.49
2710.4602,100.486
2711.4246,100.483
2712.3887,100.479
2713.3530,100.472
2714.3171,100.461
2715.2815,100.445
2716.2456,100.428
2717.2100,100.414
2718.1741,100.404
2719.1384,100.399
2720.1025,100.399
2721.0669,100.4
2722.0310,100.399
2722.9954,100.395
2723.9595,100.386
2724.9238,100.372
2725.8879,100.352
2726.8523,100.33
2727.8164,100.308
2728.7808,100.291
2729.7449,100.28
2730.7092,100.278
2731.6733,100.283
2732.6377,100.294
2733.6018,100.306
2734.5662,100.318
2735.5303,100.327
2736.4946,100.335
2737.4587,100.34
2738.4231,100.346
2739.3872,100.353
2740.3516,100.365
2741.3157,100.382
2742.2800,100.405
2743.2441,100.435
2744.2085,100.468
2745.1726,100.502
2746.1370,100.533
2747.1011,100.556
2748.0654,100.571
2749.0295,100.579
2749.9939,100.583
2750.9580,100.586
2751.9224,100.592
2752.8865,100.601
2753.8508,100.612
2754.8149,100.622
2755.7793,100.626
2756.7434,100.625
2757.7078,100.618
2758.6719,100.607
2759.6362,100.596
2760.6003,100.586
2761.5647,100.58
2762.5288,100.576
2763.4932,100.573
2764.4573,100.571
2765.4216,100.568
2766.3857,100.565
2767.3501,100.561
2768.3142,100.559
2769.2786,100.556
2770.2427,100.553
2771.2070,100.544
2772.1711,100.527
2773.1355,100.502
2774.0996,100.472
2775.0640,100.441
2776.0281,100.413
2776.9924,100.39
2777.9565,100.368
2778.9209,100.342
2779.8850,100.309
2780.8494,100.27
2781.8135,100.229
2782.7778,100.192
2783.7419,100.164
2784.7063,100.143
2785.6704,100.127
2786.6348,100.11
2787.5989,100.088
2788.5632,100.059
2789.5273,100.024
2790.4917,99.9873
2791.4558,99.952
2792.4202,99.9213
2793.3843,99.8962
2794.3486,99.8752
2795.3127,99.8549
2796.2771,99.8317
2797.2412,99.8026
2798.2056,99.767
2799.1697,99.7264
2800.1340,99.6834
2801.0981,99.6402
2802.0625,99.598
2803.0266,99.5565
2803.9910,99.5149
2804.9551,99.4722
2805.9194,99.4272
2806.8835,99.3784
2807.8479,99.3242
2808.8120,99.2633
2809.7764,99.1959
2810.7405,99.1232
2811.7048,99.0476
2812.6689,98.9707
2813.6333,98.893
2814.5974,98.8133
2815.5618,98.7294
2816.5259,98.6392
2817.4902,98.5411
2818.4543,98.4339
2819.4187,98.3174
2820.3828,98.1915
2821.3472,98.0568
2822.3113,97.9146
2823.2756,97.7666
2824.2397,97.6139
2825.2041,97.4566
2826.1682,97.2931
2827.1326,97.1199
2828.0967,96.9329
2829.0610,96.7283
2830.0251,96.5042
2830.9895,96.2608
2831.9536,96.0001
2832.9180,95.7237
2833.8821,95.4321
2834.8464,95.1232
2835.8105,94.7931
2836.7749,94.4379
2837.7390,94.0555
2838.7034,93.6467
2839.6675,93.2134
2840.6318,92.757
2841.5959,92.2757
2842.5603,91.7655
2843.5244,91.2237
2844.4888,90.6545
2845.4529,90.0727
2846.4172,89.5041
2847.3813,88.979
2848.3457,88.5229
2849.3098,88.1482
2850.2742,87.8511
2851.2383,87.6153
2852.2026,87.4206
2853.1667,87.2508
2854.1311,87.0979
2855.0952,86.9604
2856.0596,86.8386
2857.0237,86.73
2857.9880,86.6279
2858.9521,86.5223
2859.9165,86.4044
2860.8806,86.269
2861.8450,86.1152
2862.8091,85.946
2863.7734,85.7666
2864.7375,85.5831
2865.7019,85.4019
2866.6660,85.2304
2867.6304,85.0762
2868.5945,84.9468
2869.5588,84.8482
2870.5229,84.783
2871.4873,84.7495
2872.4514,84.7419
2873.4158,84.7511
2874.3799,84.7671
2875.3442,84.7801
2876.3083,84.781
2877.2727,84.7618
2878.2368,84.7165
2879.2012,84.6432
2880.1653,84.546
2881.1296,84.4358
2882.0938,84.3271
2883.0581,84.2333
2884.0222,84.1612
2884.9866,84.1083
2885.9507,84.0633
2886.9150,84.0102
2887.8792,83.9337
2888.8435,83.8256
2889.8076,83.688
2890.7720,83.5336
2891.7361,83.3796
2892.7004,83.2372
2893.6646,83.1014
2894.6289,82.9479
2895.5930,82.7428
2896.5574,82.4623
2897.5215,82.1105
2898.4858,81.7258
2899.4500,81.3665
2900.4143,81.0853
2901.3784,80.904
2902.3428,80.8052
2903.3069,80.7424
2904.2712,80.6636
2905.2354,80.5319
2906.1997,80.3336
2907.1638,80.0744
2908.1282,79.7689
2909.0923,79.4327
2910.0566,79.0789
2911.0208,78.7191
2911.9851,78.3642
2912.9492,78.0233
2913.9136,77.703
2914.8777,77.4075
2915.8420,77.1402
2916.8062,76.9043
2917.7705,76.7036
2918.7346,76.5411
2919.6990,76.418
2920.6631,76.3347
2921.6274,76.2912
2922.5916,76.288
2923.5559,76.3252
2924.5200,76.4023
2925.4844,76.5177
2926.4485,76.6688
2927.4128,76.8534
2928.3770,77.0695
2929.3413,77.3142
2930.3054,77.5837
2931.2698,77.8732
2932.2339,78.1777
2933.1982,78.4935
2934.1624,78.8183
2935.1267,79.1496
2936.0908,79.483
2937.0552,79.8114
2938.0193,80.1258
2938.9836,80.418
2939.9478,80.6838
2940.9121,80.9238
2941.8762,81.142
2942.8406,81.3424
2943.8047,81.5244
2944.7690,81.6814
2945.7332,81.8025
2946.6975,81.8771
2947.6616,81.8993
2948.6260,81.8712
2949.5901,81.8018
2950.5544,81.7037
2951.5186,81.5884
2952.4829,81.4644
2953.4470,81.3366
2954.4114,81.2081
2955.3755,81.0831
2956.3398,80.9681
2957.3040,80.8715
2958.2683,80.8008
2959.2324,80.7601
2960.1968,80.7477
2961.1609,80.7566
2962.1252,80.7783
2963.0894,80.8059
2964.0537,80.8377
2965.0178,80.877
2965.9822,80.9301
2966.9463,81.0039
2967.9106,81.1046
2968.8748,81.2376
2969.8391,81.4079
2970.8032,81.6196
2971.7676,81.8731
2972.7317,82.1642
2973.6960,82.4842
2974.6602,82.8223
2975.6245,83.1688
2976.5886,83.5178
2977.5530,83.8664
2978.5171,84.2132
2979.4814,84.5559
2980.4456,84.8892
2981.4099,85.2027
2982.3740,85.4816
2983.3384,85.7125
2984.3025,85.8926
2985.2668,86.0408
2986.2310,86.2007
2987.1953,86.4302
2988.1594,86.7783
2989.1238,87.2591
2990.0879,87.8406
2991.0522,88.4549
2992.0164,89.0273
2992.9807,89.5081
2993.9448,89.8892
2994.9092,90.1988
2995.8733,90.4788
2996.8376,90.762
2997.8018,91.06
2998.7661,91.368
2999.7302,91.6757
3000.6946,91.9785
3001.6587,92.2791
3002.6230,92.5836
3003.5872,92.8957
3004.5515,93.2137
3005.5156,93.5316
3006.4800,93.8414
3007.4441,94.1367
3008.4084,94.4142
3009.3726,94.675
3010.3369,94.9238
3011.3010,95.1669
3012.2654,95.4093
3013.2295,95.651
3014.1938,95.8873
3015.1580,96.111
3016.1223,96.3164
3017.0864,96.5023
3018.0508,96.6726
3019.0149,96.8334
3019.9792,96.9901
3020.9434,97.1457
3021.9077,97.3
3022.8718,97.4513
3023.8362,97.5974
3024.8003,97.7358
3025.7646,97.8641
3026.7288,97.9805
3027.6931,98.0849
3028.6572,98.1796
3029.6216,98.2699
3030.5857,98.3616
3031.5500,98.4591
3032.5142,98.5628
3033.4785,98.6692
3034.4426,98.7732
3035.4070,98.8701
3036.3711,98.9579
3037.3354,99.0371
3038.2996,99.1087
3039.2639,99.1734
3040.2280,99.2299
3041.1924,99.2767
3042.1565,99.313
3043.1208,99.3401
3044.0850,99.361
3045.0493,99.3797
3046.0134,99.3996
3046.9778,99.422
3047.9419,99.4464
3048.9063,99.4699
3049.8704,99.4892
3050.8347,99.4745
3051.7988,99.4458
3052.7632,99.4119
3053.7273,99.3771
3054.6917,99.3461
3055.6558,99.3229
3056.6201,99.3084
3057.5842,99.3002
3058.5486,99.293
3059.5127,99.2806
3060.4771,99.2581
3061.4412,99.2244
3062.4055,99.1824
3063.3696,99.1385
3064.3340,99.0999
3065.2981,99.0709
3066.2625,99.0511
3067.2266,99.0359
3068.1909,99.0194
3069.1550,98.9981
3070.1194,98.9723
3071.0835,98.9443
3072.0479,98.9163
3073.0120,98.8879
3073.9763,98.8566
3074.9404,98.8196
3075.9048,98.7769
3076.8689,98.7314
3077.8333,98.6881
3078.7974,98.6504
3079.7617,98.619
3080.7258,98.591
3081.6902,98.563
3082.6543,98.5327
3083.6187,98.4999
3084.5828,98.4662
3085.5471,98.4328
3086.5112,98.3994
3087.4756,98.3642
3088.4397,98.3251
3089.4041,98.2803
3090.3682,98.2293
3091.3325,98.1725
3092.2966,98.1105
3093.2610,98.0441
3094.2251,97.974
3095.1895,97.9015
3096.1536,97.8285
3097.1179,97.7576
3098.0820,97.6909
3099.0464,97.6292
3100.0105,97.5711
3100.9749,97.5142
3101.9390,97.4561
3102.9033,97.3963
3103.8674,97.3359
3104.8318,97.2772
3105.7959,97.2216
3106.7603,97.168
3107.7244,97.113
3108.6887,97.0526
3109.6528,96.9845
3110.6172,96.9097
3111.5813,96.8313
3112.5457,96.7536
3113.5098,96.6793
3114.4741,96.6095
3115.4382,96.5435
3116.4026,96.4805
3117.3667,96.4207
3118.3311,96.3649
3119.2952,96.3136
3120.2595,96.2658
3121.2236,96.2193
3122.1880,96.1712
3123.1521,96.1192
3124.1165,96.0625
3125.0806,96.0011
3126.0449,95.9349
3127.0090,95.864
3127.9734,95.7887
3128.9375,95.7108
3129.9019,95.6338
3130.8660,95.5621
3131.8303,95.4989
3132.7944,95.4443
3133.7588,95.3949
3134.7229,95.3453
3135.6873,95.291
3136.6514,95.2298
3137.6157,95.1627
3138.5798,95.0922
3139.5442,95.0209
3140.5083,94.9498
3141.4727,94.8787
3142.4368,94.8063
3143.4011,94.7318
3144.3652,94.6558
3145.3296,94.5806
3146.2937,94.5098
3147.2581,94.4467
3148.2222,94.3921
3149.1865,94.3433
3150.1506,94.2941
3151.1150,94.2376
3152.0791,94.1691
3153.0435,94.0886
3154.0076,94.0007
3154.9719,93.9115
3155.9360,93.8261
3156.9004,93.7462
3157.8645,93.6708
3158.8289,93.5979
3159.7930,93.5267
3160.7573,93.4571
3161.7214,93.3894
3162.6858,93.3222
3163.6499,93.2531
3164.6143,93.1799
3165.5784,93.1031
3166.5427,93.0256
3167.5068,92.9514
3168.4712,92.883
3169.4353,92.8554
3170.3997,92.7899
3171.3638,92.7178
3172.3281,92.6364
3173.2922,92.5479
3174.2566,92.4583
3175.2207,92.3745
3176.1851,92.3012
3177.1492,92.2393
3178.1135,92.1848
3179.0776,92.1317
3180.0420,92.0738
3181.0061,92.0074
3181.9705,91.9327
3182.9346,91.8529
3183.8989,91.7732
3184.8630,91.6978
3185.8274,91.6292
3186.7915,91.5668
3187.7559,91.5087
3188.7200,91.4523
3189.6843,91.396
3190.6484,91.338
3191.6128,91.2763
3192.5769,91.2087
3193.5413,91.1338
3194.5054,91.0527
3195.4697,90.97
3196.4338,90.8916
3197.3982,90.8227
3198.3623,90.7645
3199.3267,90.714
3200.2908,90.6662
3201.2551,90.6163
3202.2192,90.562
3203.1836,90.5031
3204.1477,90.4407
3205.1121,90.3757
3206.0762,90.3093
3207.0405,90.2429
3208.0046,90.1787
3208.9690,90.1181
3209.9331,90.0615
3210.8975,90.0074
3211.8616,89.9541
3212.8259,89.9009
3213.7900,89.8491
3214.7544,89.8014
3215.7185,89.7597
3216.6829,89.7233
3217.6470,89.6888
3218.6113,89.6516
3219.5754,89.608
3220.5398,89.5567
3221.5039,89.4983
3222.4683,89.435
3223.4324,89.3694
3224.3967,89.3045
3225.3608,89.2439
3226.3252,89.1917
3227.2893,89.1503
3228.2537,89.1194
3229.2178,89.0947
3230.1821,89.0696
3231.1462,89.0374
3232.1106,88.9952
3233.0747,88.9442
3234.0391,88.8893
3235.0032,88.8362
3235.9675,88.7878
3236.9316,88.7437
3237.8960,88.7006
3238.8601,88.6548
3239.8245,88.6052
3240.7886,88.5539
3241.7529,88.5056
3242.7170,88.4651
3243.6814,88.4342
3244.6455,88.4104
3245.6099,88.388
3246.5740,88.3602
3247.5383,88.3231
3248.5024,88.2769
3249.4668,88.2254
3250.4309,88.1729
3251.3953,88.1226
3252.3594,88.0755
3253.3237,88.0307
3254.2878,87.9876
3255.2522,87.9469
3256.2163,87.9101
3257.1807,87.8783
3258.1448,87.8503
3259.1091,87.8229
3260.0732,87.7917
3261.0376,87.7539
3262.0017,87.7095
3262.9661,87.6617
3263.9302,87.6147
3264.8945,87.5716
3265.8586,87.5326
3266.8230,87.4952
3267.7871,87.4556
3268.7515,87.4116
3269.7156,87.3639
3270.6799,87.3159
3271.6440,87.272
3272.6084,87.2357
3273.5725,87.2073
3274.5369,87.1845
3275.5010,87.1637
3276.4653,87.1417
3277.4294,87.1168
3278.3938,87.089
3279.3579,87.0589
3280.3223,87.0275
3281.2864,86.9955
3282.2507,86.9634
3283.2148,86.9313
3284.1792,86.8985
3285.1433,86.8634
3286.1077,86.8248
3287.0718,86.7823
3288.0361,86.7371
3289.0002,86.6916
3289.9646,86.6482
3290.9287,86.6085
3291.8931,86.5732
3292.8572,86.543
3293.8215,86.5187
3294.7856,86.5003
3295.7500,86.4853
3296.7141,86.4691
3297.6785,86.4459
3298.6426,86.4126
3299.6069,86.3708
3300.5710,86.3261
3301.5354,86.2847
3302.4995,86.2494
3303.4639,86.2186
3304.4280,86.1882
3305.3923,86.1557
3306.3564,86.1229
3307.3208,86.0947
3308.2849,86.0756
3309.2493,86.0659
3310.2134,86.0609
3311.1777,86.054
3312.1418,86.0399
3313.1062,86.0169
3314.0703,85.9867
3315.0347,85.9523
3315.9988,85.9166
3316.9631,85.8821
3317.9272,85.8511
3318.8916,85.826
3319.8557,85.8082
3320.8201,85.7969
3321.7842,85.7886
3322.7485,85.7778
3323.7126,85.7598
3324.6770,85.7325
3325.6411,85.6973
3326.6055,85.6587
3327.5696,85.622
3328.5339,85.5907
3329.4980,85.5664
3330.4624,85.5484
3331.4265,85.5355
3332.3909,85.527
3333.3550,85.5226
3334.3193,85.5217
3335.2834,85.5224
3336.2478,85.5212
3337.2119,85.5146
3338.1763,85.5002
3339.1404,85.4785
3340.1047,85.4525
3341.0688,85.4262
3342.0332,85.4024
3342.9973,85.3819
3343.9617,85.3638
3344.9258,85.3468
3345.8901,85.3304
3346.8542,85.3153
3347.8186,85.3028
3348.7827,85.2937
3349.7471,85.2869
3350.7112,85.28
3351.6755,85.2703
3352.6396,85.2558
3353.6040,85.237
3354.5681,85.2166
3355.5325,85.1983
3356.4966,85.1855
3357.4609,85.1791
3358.4250,85.1777
3359.3894,85.1782
3360.3535,85.1775
3361.3179,85.1739
3362.2820,85.1681
3363.2463,85.163
3364.2104,85.1622
3365.1748,85.1678
3366.1389,85.1792
3367.1033,85.1929
3368.0674,85.2039
3369.0317,85.2084
3369.9958,85.2058
3370.9602,85.1986
3371.9243,85.1906
3372.8887,85.1843
3373.8528,85.1802
3374.8171,85.1768
3375.7813,85.1733
3376.7456,85.1701
3377.7097,85.1688
3378.6741,85.1705
3379.6382,85.1742
3380.6025,85.1778
3381.5667,85.1798
3382.5310,85.1811
3383.4951,85.1843
3384.4595,85.1917
3385.4236,85.2033
3386.3879,85.2162
3387.3521,85.2276
3388.3164,85.2375
3389.2805,85.2488
3390.2449,85.2652
3391.2090,85.2879
3392.1733,85.3141
3393.1375,85.3398
3394.1018,85.3624
3395.0659,85.3834
3396.0303,85.4064
3396.9944,85.4326
3397.9587,85.4581
3398.9229,85.4761
3399.8872,85.4816
3400.8513,85.4763
3401.8157,85.4694
3402.7798,85.4721
3403.7441,85.492
3404.7083,85.5285
3405.6726,85.5743
3406.6367,85.6201
3407.6011,85.6597
3408.5652,85.6919
3409.5295,85.7193
3410.4937,85.7445
3411.4580,85.7678
3412.4221,85.7877
3413.3865,85.8026
3414.3506,85.8129
3415.3149,85.8221
3416.2791,85.8348
3417.2434,85.8554
3418.2075,85.887
3419.1719,85.9308
3420.1360,85.9853
3421.1003,86.0473
3422.0645,86.1115
3423.0288,86.1731
3423.9929,86.2286
3424.9573,86.277
3425.9214,86.3199
3426.8857,86.3608
3427.8499,86.4035
3428.8142,86.4512
3429.7783,86.5046
3430.7427,86.5625
3431.7068,86.6226
3432.6711,86.6824
3433.6353,86.7404
3434.5996,86.7953
3435.5637,86.8458
3436.5281,86.8909
3437.4922,86.929
3438.4565,86.9592
3439.4207,86.9816
3440.3850,86.9972
3441.3491,87.0091
3442.3135,87.0222
3443.2776,87.0431
3444.2419,87.0786
3445.2061,87.1332
3446.1704,87.2068
3447.1345,87.2929
3448.0989,87.3818
3449.0630,87.4653
3450.0273,87.5406
3450.9915,87.61
3451.9558,87.6772
3452.9199,87.7443
3453.8843,87.81
3454.8484,87.8715
3455.8127,87.9263
3456.7769,87.9742
3457.7412,88.0177
3458.7053,88.0607
3459.6697,88.1072
3460.6338,88.1599
3461.5981,88.2191
3462.5623,88.2826
3463.5266,88.3473
3464.4907,88.4106
3465.4551,88.4727
3466.4192,88.5353
3467.3835,88.6007
3468.3477,88.6689
3469.3120,88.7372
3470.2761,88.8022
3471.2405,88.8622
3472.2046,88.9192
3473.1689,88.9772
3474.1331,89.0388
3475.0974,89.1028
3476.0615,89.1643
3477.0259,89.2192
3477.9900,89.2675
3478.9543,89.3149
3479.9185,89.3692
3480.8828,89.4354
3481.8469,89.5118
3482.8113,89.5902
3483.7754,89.6618
3484.7397,89.7226
3485.7039,89.7757
3486.6682,89.8288
3487.6323,89.8894
3488.5967,89.9607
3489.5608,90.0396
3490.5251,90.1191
3491.4893,90.193
3492.4536,90.2597
3493.4177,90.3225
3494.3821,90.3874
3495.3462,90.4572
3496.3105,90.5285
3497.2747,90.5926
3498.2390,90.6414
3499.2031,90.6747
3500.1675,90.7018
3501.1316,90.7398
3502.0959,90.8046
3503.0601,90.8999
3504.0244,91.0128
3504.9885,91.1242
3505.9529,91.2215
3506.9170,91.3031
3507.8813,91.3752
3508.8455,91.4454
3509.8098,91.5189
3510.7739,91.5962
3511.7383,91.6754
3512.7024,91.7551
3513.6667,91.8358
3514.6309,91.9172
3515.5952,91.9973
3516.5593,92.0718
3517.5237,92.1378
3518.4878,92.1957
3519.4521,92.2496
3520.4163,92.3048
3521.3806,92.3651
3522.3447,92.4303
3523.3091,92.4976
3524.2732,92.5647
3525.2375,92.6338
3526.2017,92.712
3527.1660,92.8065
3528.1301,92.9184
3529.0945,93.0388
3530.0586,93.1535
3531.0229,93.2522
3531.9871,93.3348
3532.9514,93.41
3533.9155,93.4899
3534.8799,93.5834
3535.8440,93.6912
3536.8083,93.804
3537.7725,93.9075
3538.7368,93.9898
3539.7009,94.0481
3540.6653,94.0887
3541.6294,94.1255
3542.5938,94.1764
3543.5579,94.2603
3544.5222,94.3873
3545.4863,94.547
3546.4507,94.7095
3547.4148,94.8447
3548.3792,94.9441
3549.3433,95.0219
3550.3076,95.1038
3551.2717,95.2125
3552.2361,95.3561
3553.2002,95.5238
3554.1646,95.6931
3555.1287,95.8456
3556.0930,95.9752
3557.0571,96.0854
3558.0215,96.1816
3558.9856,96.2667
3559.9500,96.3404
3560.9141,96.4019
3561.8784,96.4531
3562.8425,96.499
3563.8069,96.5492
3564.7710,96.6253
3565.7354,96.764
3566.6995,96.9857
3567.6638,97.2471
3568.6279,97.4676
3569.5923,97.6094
3570.5564,97.692
3571.5208,97.7529
3572.4849,97.8157
3573.4492,97.8845
3574.4133,97.9541
3575.3777,98.02
3576.3418,98.0845
3577.3062,98.1537
3578.2703,98.2304
3579.2346,98.31
3580.1987,98.3821
3581.1631,98.4383
3582.1272,98.4786
3583.0916,98.5096
3584.0557,98.5394
3585.0200,98.5782
3585.9841,98.6435
3586.9485,98.7464
3587.9126,98.8601
3588.8770,98.932
3589.8411,98.9383
3590.8054,98.8997
3591.7695,98.8508
3592.7339,98.8163
3593.6980,98.8063
3594.6624,98.8194
3595.6265,98.8452
3596.5908,98.8733
3597.5549,98.9034
3598.5193,98.9456
3599.4834,99.0085
3600.4478,99.0887
3601.4119,99.1709
3602.3762,99.2412
3603.3403,99.2987
3604.3047,99.3534
3605.2688,99.4156
3606.2332,99.4908
3607.1973,99.5764
3608.1616,99.6594
3609.1257,99.7191
3610.0901,99.7403
3611.0542,99.7238
3612.0186,99.6845
3612.9829,99.6408
3613.9470,99.6065
3614.9114,99.5892
3615.8755,99.5933
3616.8398,99.6235
3617.8040,99.6848
3618.7683,99.7708
3619.7324,99.8479
3620.6968,99.8596
3621.6609,99.7975
3622.6252,99.7015
3623.5894,99.6263
3624.5537,99.6071
3625.5178,99.6418
3626.4822,99.7024
3627.4463,99.7708
3628.4106,99.8502
3629.3748,99.9154
3630.3391,99.9137
3631.3032,99.8432
3632.2676,99.7547
3633.2317,99.6945
3634.1960,99.6746
3635.1602,99.6794
3636.1245,99.6844
3637.0886,99.6739
3638.0530,99.6443
3639.0171,99.5993
3639.9814,99.5417
3640.9456,99.4737
3641.9099,99.401
3642.8740,99.3339
3643.8384,99.2801
3644.8025,99.2299
3645.7668,99.1475
3646.7310,99.0013
3647.6953,98.8487
3648.6594,98.846
3649.6238,99.0091
3650.5879,99.1495
3651.5522,99.1604
3652.5164,99.0843
3653.4807,98.99
3654.4448,98.9072
3655.4092,98.8327
3656.3733,98.7549
3657.3376,98.6702
3658.3018,98.5868
3659.2661,98.522
3660.2302,98.4902
3661.1946,98.4898
3662.1587,98.5042
3663.1230,98.5158
3664.0872,98.5196
3665.0515,98.5219
3666.0156,98.5251
3666.9800,98.5167
3667.9441,98.4836
3668.9084,98.4354
3669.8726,98.3957
3670.8369,98.3655
3671.8010,98.3275
3672.7654,98.2705
3673.7295,98.2049
3674.6938,98.178
3675.6580,98.248
3676.6223,98.3972
3677.5864,98.5378
3678.5508,98.6162
3679.5149,98.6376
3680.4792,98.6216
3681.4434,98.5808
3682.4077,98.528
3683.3718,98.4837
3684.3362,98.4676
3685.3003,98.4794
3686.2646,98.4889
3687.2288,98.4582
3688.1931,98.3942
3689.1572,98.3637
3690.1216,98.4093
3691.0857,98.4981
3692.0500,98.5856
3693.0142,98.6603
3693.9785,98.7273
3694.9426,98.791
3695.9070,98.8534
3696.8711,98.9174
3697.8354,98.9875
3698.7996,99.0669
3699.7639,99.1557
3700.7280,99.2507
3701.6924,99.3424
3702.6565,99.4149
3703.6208,99.4565
3704.5850,99.4719
3705.5493,99.4766
3706.5134,99.4809
3707.4778,99.4815
3708.4419,99.4763
3709.4063,99.4962
3710.3704,99.604
3711.3347,99.8091
3712.2988,100.014
3713.2632,100.117
3714.2273,100.108
3715.1917,100.035
3716.1558,99.9477
3717.1201,99.8701
3718.0842,99.8032
3719.0486,99.7383
3720.0127,99.6696
3720.9771,99.6031
3721.9412,99.5674
3722.9055,99.5479
3723.8696,99.5528
3724.8340,99.5821
3725.7981,99.6257
3726.7625,99.6711
3727.7266,99.7141
3728.6909,99.7584
3729.6550,99.8041
3730.6194,99.8378
3731.5835,99.8376
3732.5479,99.7977
3733.5120,99.7588
3734.4763,99.7906
3735.4404,99.8983
3736.4048,99.9935
3737.3689,100.012
3738.3333,99.9887
3739.2974,100.006
3740.2617,100.124
3741.2258,100.341
3742.1902,100.586
3743.1543,100.748
3744.1187,100.746
3745.0828,100.582
3746.0471,100.333
3747.0112,100.09
3747.9756,99.9175
3748.9397,99.8493
3749.9041,99.9065
3750.8682,100.065
3751.8325,100.208
3752.7966,100.226
3753.7610,100.13
3754.7251,100
3755.6895,99.8994
3756.6536,99.8522
3757.6179,99.8585
3758.5820,99.9048
3759.5464,99.9652
3760.5105,100.013
3761.4749,100.037
3762.4390,100.046
3763.4033,100.049
3764.3674,100.051
3765.3318,100.053
3766.2959,100.055
3767.2603,100.062
3768.2244,100.08
3769.1887,100.113
3770.1528,100.15
3771.1172,100.172
3772.0813,100.165
3773.0457,100.136
3774.0098,100.099
3774.9741,100.07
3775.9382,100.05
3776.9026,100.036
3777.8667,100.025
3778.8311,100.016
3779.7952,100.005
3780.7595,99.9815
3781.7236,99.9445
3782.6880,99.905
3783.6521,99.8791
3784.6165,99.8794
3785.5806,99.9076
3786.5449,99.9535
3787.5090,100.001
3788.4734,100.039
3789.4375,100.065
3790.4019,100.082
3791.3660,100.094
3792.3303,100.096
3793.2944,100.076
3794.2588,100.03
3795.2229,99.9666
3796.1873,99.9087
3797.1514,99.8765
3798.1157,99.8735
3799.0798,99.8868
3800.0442,99.9016
3801.0083,99.9129
3801.9727,99.9198
3802.9368,99.923
3803.9011,99.9331
3804.8652,99.9666
3805.8296,100.026
3806.7937,100.091
3807.7581,100.126
3808.7222,100.107
3809.6865,100.053
3810.6506,100.01
3811.6150,100.011
3812.5791,100.05
3813.5435,100.085
3814.5076,100.072
3815.4719,99.9998
3816.4360,99.892
3817.4004,99.7841
3818.3645,99.7075
3819.3289,99.6846
3820.2930,99.7203
3821.2573,99.7838
3822.2214,99.8185
3823.1858,99.7947
3824.1499,99.7342
3825.1143,99.6817
3826.0784,99.6696
3827.0427,99.704
3828.0068,99.7688
3828.9712,99.8385
3829.9353,99.8914
3830.8997,99.9183
3831.8638,99.9222
3832.8281,99.9117
3833.7922,99.8909
3834.7566,99.8541
3835.7207,99.7913
3836.6851,99.705
3837.6492,99.6225
3838.6135,99.5802
3839.5776,99.593
3840.5420,99.6501
3841.5061,99.7313
3842.4705,99.8145
3843.4346,99.8732
3844.3989,99.8826
3845.3630,99.8371
3846.3274,99.7619
3847.2915,99.7062
3848.2559,99.7201
3849.2200,99.8281
3850.1843,100.011
3851.1484,100.211
3852.1128,100.384
3853.0769,100.514
3854.0413,100.541
3855.0054,100.399
3855.9697,100.148
3856.9338,99.9114
3857.8982,99.7697
3858.8623,99.7331
3859.8267,99.7607
3860.7908,99.794
3861.7551,99.7959
3862.7192,99.7753
3863.6836,99.7709
3864.6477,99.8069
3865.6121,99.8743
3866.5762,99.9448
3867.5405,99.9871
3868.5046,99.9814
3869.4690,99.9327
3870.4331,99.8711
3871.3975,99.8288
3872.3616,99.8155
3873.3259,99.8217
3874.2900,99.8369
3875.2544,99.8583
3876.2185,99.8852
3877.1829,99.9104
3878.1470,99.9208
3879.1113,99.9091
3880.0754,99.8845
3881.0398,99.87
3882.0039,99.8865
3882.9683,99.9393
3883.9324,100.014
3884.8967,100.082
3885.8608,100.115
3886.8252,100.098
3887.7893,100.044
3888.7537,99.9705
3889.7178,99.8976
3890.6821,99.8396
3891.6462,99.8071
3892.6106,99.7971
3893.5747,99.7974
3894.5391,99.8049
3895.5032,99.825
3896.4675,99.8559
3897.4316,99.8832
3898.3960,99.8929
3899.3601,99.885
3900.3245,99.8706
3901.2886,99.8585
3902.2529,99.8523
3903.2170,99.8539
3904.1814,99.861
3905.1455,99.866
3906.1099,99.8646
3907.0740,99.8615
3908.0383,99.8634
3909.0024,99.8718
3909.9668,99.8813
3910.9309,99.886
3911.8953,99.8845
3912.8594,99.8806
3913.8237,99.8791
3914.7878,99.8831
3915.7522,99.8939
3916.7163,99.91
3917.6807,99.9241
3918.6448,99.9234
3919.6091,99.899
3920.5732,99.8541
3921.5376,99.8021
3922.5017,99.7584
3923.4661,99.734
3924.4302,99.7299
3925.3945,99.7361
3926.3586,99.7391
3927.3230,99.7326
3928.2871,99.7198
3929.2515,99.7098
3930.2156,99.7143
3931.1799,99.7419
3932.1440,99.7899
3933.1084,99.8428
3934.0725,99.884
3935.0369,99.9076
3936.0010,99.917
3936.9653,99.9178
3937.9294,99.9115
3938.8938,99.8963
3939.8579,99.8712
3940.8223,99.841
3941.7864,99.8155
3942.7507,99.8034
3943.7148,99.8046
3944.6792,99.8113
3945.6433,99.8138
3946.6077,99.8062
3947.5718,99.7897
3948.5361,99.7721
3949.5002,99.7635
3950.4646,99.7688
3951.4287,99.7859
3952.3931,99.8089
3953.3572,99.8313
3954.3215,99.8474
3955.2856,99.8526
3956.2500,99.8446
3957.2141,99.8243
3958.1785,99.797
3959.1426,99.7719
3960.1069,99.7603
3961.0710,99.77
3962.0354,99.8002
3962.9995,99.8404
3963.9639,99.8751
3964.9280,99.8915
3965.8923,99.8858
3966.8564,99.8636
3967.8208,99.8363
3968.7849,99.8138
3969.7493,99.8002
3970.7134,99.7928
3971.6777,99.7866
3972.6418,99.779
3973.6062,99.7724
3974.5703,99.7715
3975.5347,99.7793
3976.4988,99.794
3977.4631,99.8096
3978.4272,99.8196
3979.3916,99.8208
3980.3557,99.8145
3981.3201,99.8054
3982.2842,99.7986
3983.2485,99.7966
3984.2126,99.798
3985.1770,99.7992
3986.1411,99.797
3987.1055,99.7894
3988.0696,99.7764
3989.0339,99.7585
3989.9980,99.7371
3990.9624,99.7149
3991.9265,99.6963
3992.8909,99.6868
3993.8550,99.6904
3994.8193,99.7071
3995.7834,99.7311
3996.7478,99.7534
3997.7119,99.7667
3998.6763,99.7689
3999.6404,99.764
4000.6047,99.6267

##### Extended Information
[Comments]
Sample name
Comment
User
Division
Company,HANKYONG

[Detailed Information]
Creation date,4/24/2024 10:50 AM

Data array type,Linear data array
Horizontal axis,Wavenumber [cm-1]
Vertical axis,%T
Start,649.893 cm-1
End,4000.6 cm-1
Data interval,0.964233 cm-1
Data points,3476    

[Measurement Information]
Model Name,FT/IR-4700typeA
Serial Number,D056761788

Accessory,ATR PRO ONE
Accessory S/N,C174761809
Incident angle,45 deg

Measurement Date,4/24/2024 10:50 AM

Light Source,Standard
Detector,TGS
Accumulation,32
Resolution,4 cm-1
Zero Filling,On
Apodization,Cosine
Gain,Auto (4)
Aperture,Auto (7.1 mm)
Scanning Speed,Auto (2 mm/sec)
Filter,Auto (30000 Hz)

