TITLE,
DATA TYPE,INFRARED SPECTRUM
ORIGIN,JASCO
OWNER,
DATE,24/04/24
TIME,11:29:06
SPECTROMETER/DATA SYSTEM,
LOCALE,1033
RESOLUTION,
DELTAX,0.964233
XUNITS,1/CM
YUNITS,TRANSMITTANCE
FIRSTX,  649.8934
LASTX, 4000.6047
NPOINTS,    3476
FIRSTY,    99.15128
MAXY,   101.72004
MINY,    58.27680
XYDATA
649.8934,99.1513
650.8576,99.1486
651.8218,99.1446
652.7861,99.2035
653.7503,99.2627
654.7145,99.3077
655.6788,99.3318
656.6430,99.3267
657.6072,99.2888
658.5715,99.2309
659.5357,99.1858
660.4999,99.1916
661.4642,99.2584
662.4284,99.3468
663.3926,99.3747
664.3569,99.2356
665.3211,98.8087
666.2853,97.9863
667.2496,96.8077
668.2138,95.6808
669.1780,95.1909
670.1423,95.4099
671.1065,95.9217
672.0707,96.3707
673.0350,96.6113
673.9992,96.6209
674.9634,96.4399
675.9277,96.1495
676.8919,95.8459
677.8561,95.6038
678.8204,95.4537
679.7846,95.387
680.7488,95.3733
681.7131,95.3749
682.6773,95.3593
683.6415,95.3106
684.6058,95.2341
685.5700,95.1487
686.5342,95.0733
687.4985,95.0147
688.4627,94.9661
689.4269,94.9147
690.3912,94.8533
691.3554,94.7879
692.3196,94.7395
693.2839,94.7353
694.2481,94.787
695.2123,94.8784
696.1766,94.9797
697.1408,95.0654
698.1050,95.1174
699.0693,95.122
700.0335,95.0713
700.9977,94.9663
701.9620,94.8179
702.9262,94.6436
703.8904,94.4616
704.8547,94.285
705.8189,94.1184
706.7831,93.9576
707.7474,93.7935
708.7116,93.6161
709.6758,93.4178
710.6401,93.1946
711.6043,92.9444
712.5685,92.6639
713.5328,92.3451
714.4970,91.9763
715.4612,91.5966
716.4255,91.108
717.3897,90.5903
718.3539,90.0947
719.3182,89.6823
720.2824,89.3957
721.2466,89.232
722.2109,89.1404
723.1751,89.0483
724.1393,88.8961
725.1036,88.6591
726.0678,88.3502
727.0320,88.0066
727.9963,87.6694
728.9605,87.3648
729.9247,87.0961
730.8890,86.8478
731.8532,86.5967
732.8174,86.3212
733.7817,86.0054
734.7459,85.637
735.7101,85.204
736.6744,84.6934
737.6386,84.095
738.6028,83.4097
739.5671,82.6564
740.5313,81.8738
741.4955,81.1126
742.4598,80.4231
743.4240,79.8406
744.3882,79.3791
745.3525,79.0328
746.3167,78.7859
747.2809,78.6226
748.2452,78.5317
749.2094,78.5053
750.1736,78.533
751.1379,78.598
752.1021,78.6797
753.0663,78.7592
754.0306,78.8263
754.9948,78.8806
755.9590,78.9273
756.9233,78.9684
757.8875,78.9966
758.8517,78.9946
759.8160,78.9425
760.7802,78.8268
761.7444,78.6475
762.7087,78.4177
763.6729,78.1578
764.6371,77.8878
765.6014,77.6234
766.5656,77.3767
767.5298,77.1609
768.4941,76.9926
769.4583,76.8897
770.4225,76.8647
771.3868,76.9158
772.3510,77.0226
773.3152,77.148
774.2795,77.247
775.2437,77.2794
776.2079,77.2204
777.1722,77.0654
778.1364,76.8281
779.1006,76.5319
780.0649,76.201
781.0291,75.8538
781.9933,75.5019
782.9576,75.1539
783.9218,74.8195
784.8860,74.5111
785.8503,74.2396
786.8145,74.0089
787.7787,73.8104
788.7430,73.625
789.7072,73.4294
790.6714,73.2059
791.6357,72.9488
792.5999,72.6639
793.5641,72.3618
794.5284,72.0506
795.4926,71.7314
796.4568,71.4006
797.4211,71.0551
798.3853,70.6968
799.3495,70.3337
800.3138,69.9755
801.2780,69.6304
802.2422,69.3029
803.2065,68.9952
804.1707,68.7093
805.1349,68.4479
806.0992,68.2135
807.0634,68.0075
808.0276,67.8296
808.9919,67.6804
809.9561,67.5619
810.9203,67.4779
811.8846,67.4306
812.8488,67.4184
813.8130,67.4344
814.7773,67.4686
815.7415,67.5117
816.7057,67.5573
817.6700,67.6028
818.6342,67.6477
819.5984,67.6909
820.5627,67.7291
821.5269,67.7571
822.4911,67.7688
823.4554,67.7585
824.4196,67.7223
825.3839,67.6591
826.3481,67.5717
827.3123,67.468
828.2766,67.3597
829.2408,67.2596
830.2050,67.1764
831.1693,67.1104
832.1335,67.0526
833.0977,66.9875
834.0620,66.9
835.0262,66.7822
835.9904,66.6357
836.9547,66.4702
837.9189,66.2961
838.8831,66.1195
839.8474,65.9391
840.8116,65.7494
841.7758,65.546
842.7401,65.3293
843.7043,65.1059
844.6685,64.885
845.6328,64.6743
846.5970,64.4764
847.5612,64.2892
848.5255,64.1087
849.4897,63.9327
850.4539,63.763
851.4182,63.6059
852.3824,63.469
853.3466,63.3582
854.3109,63.2742
855.2751,63.2123
856.2393,63.1633
857.2036,63.117
858.1678,63.0656
859.1320,63.0058
860.0963,62.9396
861.0605,62.8725
862.0247,62.8114
862.9890,62.7616
863.9532,62.7247
864.9174,62.6985
865.8817,62.6775
866.8459,62.6554
867.8101,62.6289
868.7744,62.5987
869.7386,62.5697
870.7028,62.547
871.6671,62.5313
872.6313,62.5153
873.5955,62.4859
874.5598,62.4293
875.5240,62.3387
876.4882,62.2185
877.4525,62.0834
878.4167,61.9515
879.3809,61.8369
880.3452,61.7458
881.3094,61.6779
882.2736,61.6319
883.2379,61.6098
884.2021,61.6177
885.1663,61.6626
886.1306,61.7483
887.0948,61.8738
888.0590,62.0362
889.0233,62.2343
889.9875,62.4718
890.9517,62.7565
891.9160,63.097
892.8802,63.5001
893.8444,63.9688
894.8087,64.502
895.7729,65.0944
896.7371,65.7352
897.7014,66.4085
898.6656,67.0953
899.6298,67.7782
900.5941,68.4452
901.5583,69.0912
902.5225,69.715
903.4868,70.315
904.4510,70.8854
905.4152,71.4173
906.3795,71.9021
907.3437,72.3346
908.3079,72.7144
909.2722,73.0443
910.2364,73.3284
911.2006,73.5725
912.1649,73.784
913.1291,73.9724
914.0933,74.1479
915.0576,74.3176
916.0218,74.4847
916.9860,74.6488
917.9503,74.8092
918.9145,74.9677
919.8787,75.1282
920.8430,75.2952
921.8072,75.4705
922.7714,75.6524
923.7357,75.8372
924.6999,76.0209
925.6641,76.2006
926.6284,76.3753
927.5926,76.5475
928.5568,76.7267
929.5211,76.9344
930.4853,77.2075
931.4495,77.5961
932.4138,78.1547
933.3780,78.9269
934.3422,79.9308
935.3065,81.1492
936.2707,82.5298
937.2349,83.9964
938.1992,85.4663
939.1634,86.869
940.1276,88.1594
941.0919,89.3211
942.0561,90.3589
943.0203,91.2865
943.9846,92.1149
944.9488,92.8469
945.9130,93.4802
946.8773,94.0144
947.8415,94.4567
948.8057,94.8225
949.7700,95.1309
950.7342,95.3986
951.6984,95.6361
952.6627,95.8482
953.6269,96.0366
954.5911,96.2036
955.5554,96.3519
956.5196,96.4838
957.4838,96.5998
958.4481,96.6992
959.4123,96.7815
960.3765,96.8487
961.3408,96.9058
962.3050,96.96
963.2692,97.0185
964.2335,97.0868
965.1977,97.1675
966.1619,97.2607
967.1262,97.3648
968.0904,97.4774
969.0546,97.5967
970.0189,97.7219
970.9831,97.8535
971.9473,97.9923
972.9116,98.1397
973.8758,98.2961
974.8400,98.4606
975.8043,98.63
976.7685,98.7984
977.7327,98.9573
978.6970,99.0974
979.6612,99.2119
980.6254,99.2983
981.5897,99.3592
982.5539,99.4002
983.5181,99.427
984.4824,99.4433
985.4466,99.4518
986.4108,99.4565
987.3751,99.4645
988.3393,99.4853
989.3035,99.5275
990.2678,99.594
991.2320,99.6804
992.1962,99.776
993.1605,99.8691
994.1247,99.9514
995.0889,100.022
996.0532,100.085
997.0174,100.15
997.9816,100.221
998.9459,100.3
999.9101,100.38
1000.8743,100.45
1001.8386,100.497
1002.8028,100.511
1003.7670,100.49
1004.7313,100.417
1005.6955,100.285
1006.6597,100.093
1007.6240,99.8402
1008.5882,99.5321
1009.5524,99.1732
1010.5167,98.7681
1011.4809,98.3214
1012.4451,97.8382
1013.4094,97.3241
1014.3736,96.7841
1015.3378,96.2205
1016.3021,95.6321
1017.2663,95.0171
1018.2305,94.3757
1019.1948,93.7101
1020.1590,93.019
1021.1232,92.2906
1022.0875,91.5016
1023.0517,90.6277
1024.0160,89.6625
1024.9802,88.6319
1025.9445,87.5932
1026.9087,86.6144
1027.8729,85.7444
1028.8372,84.9912
1029.8014,84.3223
1030.7656,83.6865
1031.7299,83.0428
1032.6941,82.3813
1033.6583,81.7248
1034.6226,81.1146
1035.5868,80.5906
1036.5510,80.1756
1037.5153,79.8691
1038.4795,79.65
1039.4437,79.4851
1040.4080,79.3394
1041.3722,79.1865
1042.3364,79.0156
1043.3007,78.8309
1044.2649,78.6466
1045.2291,78.4777
1046.1934,78.3344
1047.1576,78.2221
1048.1218,78.1457
1049.0861,78.1126
1050.0503,78.1311
1051.0145,78.2032
1051.9788,78.3188
1052.9430,78.4575
1053.9072,78.5997
1054.8715,78.739
1055.8357,78.888
1056.7999,79.0679
1057.7642,79.2864
1058.7284,79.5171
1059.6926,79.6939
1060.6569,79.7305
1061.6211,79.5582
1062.5853,79.1612
1063.5496,78.5906
1064.5138,77.9439
1065.4780,77.3213
1066.4423,76.779
1067.4065,76.3063
1068.3707,75.8363
1069.3350,75.2836
1070.2992,74.5845
1071.2634,73.7213
1072.2277,72.7183
1073.1919,71.6214
1074.1561,70.4738
1075.1204,69.3036
1076.0846,68.1253
1077.0488,66.949
1078.0131,65.7878
1078.9773,64.6592
1079.9415,63.5806
1080.9058,62.5652
1081.8700,61.6207
1082.8342,60.7532
1083.7985,59.9731
1084.7627,59.3007
1085.7269,58.7678
1086.6912,58.4139
1087.6554,58.2768
1088.6196,58.3806
1089.5839,58.7252
1090.5481,59.2831
1091.5123,60.0052
1092.4766,60.8363
1093.4408,61.7305
1094.4050,62.663
1095.3693,63.6316
1096.3335,64.6489
1097.2977,65.7303
1098.2620,66.883
1099.2262,68.0998
1100.1904,69.36
1101.1547,70.6338
1102.1189,71.8897
1103.0831,73.1016
1104.0474,74.2532
1105.0116,75.3397
1105.9758,76.3654
1106.9401,77.3398
1107.9043,78.2734
1108.8685,79.1764
1109.8328,80.06
1110.7970,80.9378
1111.7612,81.8262
1112.7255,82.7406
1113.6897,83.6914
1114.6539,84.6792
1115.6182,85.6955
1116.5824,86.7255
1117.5466,87.753
1118.5109,88.7638
1119.4751,89.7473
1120.4393,90.6959
1121.4036,91.6049
1122.3678,92.4726
1123.3320,93.3008
1124.2963,94.0936
1125.2605,94.8541
1126.2247,95.5816
1127.1890,96.27
1128.1532,96.9097
1129.1174,97.4884
1130.0817,97.9953
1131.0459,98.4323
1132.0101,98.7984
1132.9744,99.0937
1133.9386,99.3174
1134.9028,99.4688
1135.8671,99.547
1136.8313,99.5518
1137.7955,99.4837
1138.7598,99.3442
1139.7240,99.136
1140.6882,98.8646
1141.6525,98.5391
1142.6167,98.172
1143.5809,97.7793
1144.5452,97.3785
1145.5094,96.9879
1146.4736,96.6244
1147.4379,96.3019
1148.4021,96.0287
1149.3663,95.8059
1150.3306,95.6274
1151.2948,95.4811
1152.2590,95.3523
1153.2233,95.2268
1154.1875,95.0936
1155.1517,94.9458
1156.1160,94.7801
1157.0802,94.595
1158.0444,94.3894
1159.0087,94.1608
1159.9729,93.9056
1160.9371,93.6202
1161.9014,93.3029
1162.8656,92.9551
1163.8298,92.5815
1164.7941,92.1881
1165.7583,91.7814
1166.7225,91.3666
1167.6868,90.9477
1168.6510,90.5277
1169.6152,90.1089
1170.5795,89.6922
1171.5437,89.2771
1172.5079,88.8626
1173.4722,88.4481
1174.4364,88.0348
1175.4006,87.625
1176.3649,87.2209
1177.3291,86.8228
1178.2933,86.4284
1179.2576,86.0334
1180.2218,85.6339
1181.1860,85.2277
1182.1503,84.8151
1183.1145,84.3992
1184.0787,83.9845
1185.0430,83.5767
1186.0072,83.1816
1186.9714,82.8048
1187.9357,82.4503
1188.8999,82.1201
1189.8641,81.8136
1190.8284,81.5286
1191.7926,81.2628
1192.7568,81.0149
1193.7211,80.7852
1194.6853,80.576
1195.6495,80.3903
1196.6138,80.2298
1197.5780,80.0942
1198.5422,79.9798
1199.5065,79.931
1200.4707,79.8328
1201.4349,79.7349
1202.3992,79.6337
1203.3634,79.5284
1204.3276,79.4211
1205.2919,79.3142
1206.2561,79.2094
1207.2203,79.1062
1208.1846,79.003
1209.1488,78.8977
1210.1130,78.7898
1211.0773,78.6806
1212.0415,78.5721
1213.0057,78.4654
1213.9700,78.3596
1214.9342,78.2513
1215.8984,78.1367
1216.8627,78.0129
1217.8269,77.8797
1218.7911,77.7378
1219.7554,77.5886
1220.7196,77.4322
1221.6838,77.2674
1222.6481,77.0919
1223.6123,76.9036
1224.5765,76.7014
1225.5408,76.4843
1226.5050,76.2487
1227.4692,75.986
1228.4335,75.6817
1229.3977,75.3186
1230.3619,74.8874
1231.3262,74.3985
1232.2904,73.8925
1233.2546,73.4389
1234.2189,73.123
1235.1831,73.0239
1236.1473,73.1935
1237.1116,73.6464
1238.0758,74.3629
1239.0400,75.3009
1240.0043,76.4059
1240.9685,77.613
1241.9327,78.8444
1242.8970,80.0092
1243.8612,81.0166
1244.8254,81.7973
1245.7897,82.3245
1246.7539,82.6194
1247.7181,82.7384
1248.6824,82.7486
1249.6466,82.7056
1250.6108,82.642
1251.5751,82.5699
1252.5393,82.49
1253.5035,82.4015
1254.4678,82.3061
1255.4320,82.2093
1256.3962,82.1191
1257.3605,82.045
1258.3247,81.9967
1259.2889,81.9827
1260.2532,82.0061
1261.2174,82.0627
1262.1816,82.1413
1263.1459,82.226
1264.1101,82.3005
1265.0743,82.3501
1266.0386,82.363
1267.0028,82.3311
1267.9670,82.2512
1268.9313,82.1258
1269.8955,81.9639
1270.8597,81.7795
1271.8240,81.5894
1272.7882,81.4092
1273.7524,81.2508
1274.7167,81.1215
1275.6809,81.0253
1276.6451,80.9638
1277.6094,80.9366
1278.5736,80.9411
1279.5378,80.9721
1280.5021,81.0228
1281.4663,81.0866
1282.4305,81.1601
1283.3948,81.2445
1284.3590,81.3466
1285.3232,81.4769
1286.2875,81.6466
1287.2517,81.8646
1288.2159,82.1335
1289.1802,82.4489
1290.1444,82.8001
1291.1086,83.1736
1292.0729,83.5556
1293.0371,83.9344
1294.0013,84.2998
1294.9656,84.6429
1295.9298,84.9564
1296.8940,85.2354
1297.8583,85.478
1298.8225,85.686
1299.7867,85.8635
1300.7510,86.0158
1301.7152,86.1475
1302.6794,86.2642
1303.6437,86.372
1304.6079,86.4768
1305.5721,86.5826
1306.5364,86.6898
1307.5006,86.7955
1308.4648,86.8957
1309.4291,86.9893
1310.3933,87.0796
1311.3575,87.1731
1312.3218,87.2749
1313.2860,87.3856
1314.2502,87.5003
1315.2145,87.6138
1316.1787,87.7254
1317.1429,87.8398
1318.1072,87.9649
1319.0714,88.1042
1320.0356,88.2536
1320.9999,88.4022
1321.9641,88.5391
1322.9283,88.659
1323.8926,88.7624
1324.8568,88.8537
1325.8210,88.9373
1326.7853,89.0157
1327.7495,89.0894
1328.7137,89.1583
1329.6780,89.2227
1330.6422,89.2821
1331.6064,89.3334
1332.5707,89.369
1333.5349,89.3779
1334.4991,89.3501
1335.4634,89.2818
1336.4276,89.1828
1337.3918,89.0816
1338.3561,89.0201
1339.3203,89.0296
1340.2845,89.1018
1341.2488,89.1927
1342.2130,89.2544
1343.1772,89.2616
1344.1415,89.2121
1345.1057,89.1168
1346.0699,88.9918
1347.0342,88.8532
1347.9984,88.7129
1348.9626,88.5756
1349.9269,88.4392
1350.8911,88.2989
1351.8553,88.1523
1352.8196,88.0027
1353.7838,87.8584
1354.7480,87.7291
1355.7123,87.6191
1356.6765,87.5239
1357.6407,87.4336
1358.6050,87.3398
1359.5692,87.2425
1360.5334,87.1573
1361.4977,87.113
1362.4619,87.1307
1363.4261,87.1971
1364.3904,87.2717
1365.3546,87.3208
1366.3188,87.335
1367.2831,87.3201
1368.2473,87.2835
1369.2115,87.2262
1370.1758,87.1421
1371.1400,87.0234
1372.1042,86.8693
1373.0685,86.6946
1374.0327,86.5283
1374.9969,86.3938
1375.9612,86.2907
1376.9254,86.2023
1377.8896,86.1207
1378.8539,86.0596
1379.8181,86.0481
1380.7823,86.1129
1381.7466,86.2649
1382.7108,86.5002
1383.6750,86.8156
1384.6393,87.2182
1385.6035,87.7156
1386.5677,88.2828
1387.5320,88.833
1388.4962,89.2498
1389.4604,89.4689
1390.4247,89.5108
1391.3889,89.4454
1392.3531,89.3506
1393.3174,89.2977
1394.2816,89.3437
1395.2458,89.5085
1396.2101,89.7535
1397.1743,89.998
1398.1385,90.1676
1399.1028,90.2291
1400.0670,90.1894
1401.0313,90.0782
1401.9955,89.9309
1402.9597,89.7806
1403.9240,89.6547
1404.8882,89.5713
1405.8524,89.5316
1406.8167,89.5202
1407.7809,89.5207
1408.7451,89.5295
1409.7094,89.5527
1410.6736,89.5926
1411.6378,89.6381
1412.6021,89.6702
1413.5663,89.677
1414.5305,89.6616
1415.4948,89.6344
1416.4590,89.6045
1417.4232,89.5821
1418.3875,89.5744
1419.3517,89.5565
1420.3159,89.4754
1421.2802,89.3052
1422.2444,89.0682
1423.2086,88.8034
1424.1729,88.5383
1425.1371,88.2801
1426.1013,88.0187
1427.0656,87.7342
1428.0298,87.4077
1428.9940,87.0378
1429.9583,86.6518
1430.9225,86.2946
1431.8867,86.0037
1432.8510,85.7915
1433.8152,85.6448
1434.7794,85.5353
1435.7437,85.4398
1436.7079,85.3445
1437.6721,85.227
1438.6364,85.0622
1439.6006,84.857
1440.5648,84.6453
1441.5291,84.4563
1442.4933,84.2973
1443.4575,84.1575
1444.4218,84.0207
1445.3860,83.8762
1446.3502,83.7227
1447.3145,83.5629
1448.2787,83.3947
1449.2429,83.2086
1450.2072,83.0009
1451.1714,82.7876
1452.1356,82.5974
1453.0999,82.4464
1454.0641,82.3138
1455.0283,82.1531
1455.9926,81.977
1456.9568,81.9322
1457.9210,82.0739
1458.8853,82.2034
1459.8495,82.198
1460.8137,82.1201
1461.7780,82.064
1462.7422,82.0817
1463.7064,82.193
1464.6707,82.397
1465.6349,82.6593
1466.5991,82.9271
1467.5634,83.1868
1468.5276,83.4773
1469.4918,83.8536
1470.4561,84.3646
1471.4203,85.0599
1472.3845,85.9704
1473.3488,87.0069
1474.3130,87.9395
1475.2772,88.6015
1476.2415,89.0052
1477.2057,89.2464
1478.1699,89.4119
1479.1342,89.5612
1480.0984,89.7352
1481.0626,89.957
1482.0269,90.2245
1482.9911,90.5098
1483.9553,90.7741
1484.9196,90.9842
1485.8838,91.1206
1486.8480,91.1877
1487.8123,91.2416
1488.7765,91.3844
1489.7407,91.6491
1490.7050,91.9244
1491.6692,92.0925
1492.6334,92.1393
1493.5977,92.102
1494.5619,91.9985
1495.5261,91.8148
1496.4904,91.5414
1497.4546,91.2065
1498.4188,90.8473
1499.3831,90.4767
1500.3473,90.1173
1501.3115,89.8208
1502.2758,89.6333
1503.2400,89.5491
1504.2042,89.4764
1505.1685,89.2499
1506.1327,88.7973
1507.0969,88.3869
1508.0612,88.2708
1509.0254,88.2459
1509.9896,88.1283
1510.9539,87.9441
1511.9181,87.7625
1512.8823,87.6263
1513.8466,87.5645
1514.8108,87.6109
1515.7750,87.7951
1516.7393,88.1164
1517.7035,88.5434
1518.6677,89.053
1519.6320,89.659
1520.5962,90.3804
1521.5604,91.1721
1522.5247,91.9263
1523.4889,92.5776
1524.4531,93.164
1525.4174,93.7615
1526.3816,94.3877
1527.3458,94.9838
1528.3101,95.4823
1529.2743,95.8721
1530.2385,96.2024
1531.2028,96.547
1532.1670,96.9639
1533.1312,97.4484
1534.0955,97.9197
1535.0597,98.2992
1536.0239,98.5847
1536.9882,98.8082
1537.9524,98.9467
1538.9166,98.9196
1539.8809,98.7683
1540.8451,98.8124
1541.8093,99.2074
1542.7736,99.6818
1543.7378,100.037
1544.7020,100.269
1545.6663,100.405
1546.6305,100.461
1547.5947,100.454
1548.5590,100.411
1549.5232,100.357
1550.4874,100.307
1551.4517,100.241
1552.4159,100.15
1553.3801,100.054
1554.3444,99.9907
1555.3086,99.9796
1556.2728,99.9956
1557.2371,100.025
1558.2013,100.187
1559.1655,100.481
1560.1298,100.514
1561.0940,100.133
1562.0582,99.5588
1563.0225,99.0154
1563.9867,98.6024
1564.9509,98.3235
1565.9152,98.1296
1566.8794,97.9529
1567.8436,97.74
1568.8079,97.478
1569.7721,97.1869
1570.7363,96.8913
1571.7006,96.61
1572.6648,96.3482
1573.6290,96.0759
1574.5933,95.7332
1575.5575,95.2948
1576.5217,94.8234
1577.4860,94.3889
1578.4502,93.9827
1579.4144,93.5753
1580.3787,93.1606
1581.3429,92.7363
1582.3071,92.2935
1583.2714,91.8263
1584.2356,91.3379
1585.1998,90.8338
1586.1641,90.3155
1587.1283,89.7817
1588.0925,89.2349
1589.0568,88.6823
1590.0210,88.132
1590.9852,87.5888
1591.9495,87.0556
1592.9137,86.5412
1593.8779,86.0634
1594.8422,85.6429
1595.8064,85.2905
1596.7706,85.0004
1597.7349,84.7548
1598.6991,84.5363
1599.6633,84.3355
1600.6276,84.1537
1601.5918,83.9985
1602.5560,83.8771
1603.5203,83.7899
1604.4845,83.7323
1605.4487,83.7018
1606.4130,83.7053
1607.3772,83.7575
1608.3414,83.8685
1609.3057,84.0267
1610.2699,84.1989
1611.2341,84.3569
1612.1984,84.5003
1613.1626,84.6503
1614.1268,84.8365
1615.0911,85.0945
1616.0553,85.4473
1617.0195,85.8393
1617.9838,86.1492
1618.9480,86.3287
1619.9122,86.445
1620.8765,86.596
1621.8407,86.8424
1622.8049,87.1877
1623.7692,87.5836
1624.7334,87.9656
1625.6976,88.3088
1626.6619,88.6379
1627.6261,88.9817
1628.5903,89.3329
1629.5546,89.6597
1630.5188,89.9484
1631.4830,90.2173
1632.4473,90.4886
1633.4115,90.7599
1634.3757,91.0278
1635.3400,91.3374
1636.3042,91.7118
1637.2684,92.0411
1638.2327,92.2277
1639.1969,92.3067
1640.1611,92.3614
1641.1254,92.4459
1642.0896,92.5714
1643.0538,92.7103
1644.0181,92.8013
1644.9823,92.7861
1645.9465,92.6895
1646.9108,92.6255
1647.8750,92.6662
1648.8392,92.8101
1649.8035,93.0501
1650.7677,93.3494
1651.7319,93.6062
1652.6962,93.7422
1653.6604,93.7682
1654.6246,93.607
1655.5889,93.2154
1656.5531,92.7449
1657.5173,92.3571
1658.4816,92.1084
1659.4458,91.9644
1660.4100,91.8513
1661.3743,91.715
1662.3385,91.5509
1663.3027,91.3784
1664.2670,91.2097
1665.2312,91.0495
1666.1954,90.8895
1667.1597,90.6984
1668.1239,90.4457
1669.0881,90.1546
1670.0524,89.9042
1671.0166,89.7468
1671.9808,89.6697
1672.9451,89.6375
1673.9093,89.6136
1674.8735,89.5507
1675.8378,89.3996
1676.8020,89.1434
1677.7662,88.8247
1678.7305,88.5282
1679.6947,88.3269
1680.6589,88.2377
1681.6232,88.2094
1682.5874,88.1669
1683.5516,88.0873
1684.5159,87.9736
1685.4801,87.77
1686.4443,87.4525
1687.4086,87.0869
1688.3728,86.7547
1689.3370,86.5012
1690.3013,86.3345
1691.2655,86.2352
1692.2297,86.163
1693.1940,86.0608
1694.1582,85.8699
1695.1224,85.5673
1696.0867,85.21
1697.0509,84.9357
1698.0151,84.8688
1698.9794,84.9858
1699.9436,85.1059
1700.9078,85.0576
1701.8721,84.8229
1702.8363,84.5135
1703.8005,84.2667
1704.7648,84.1731
1705.7290,84.249
1706.6932,84.4382
1707.6575,84.6532
1708.6217,84.8349
1709.5859,84.9812
1710.5502,85.1218
1711.5144,85.2812
1712.4786,85.4611
1713.4429,85.6495
1714.4071,85.8564
1715.3713,86.1667
1716.3356,86.726
1717.2998,87.5307
1718.2640,88.3023
1719.2283,88.8028
1720.1925,89.0613
1721.1567,89.2374
1722.1210,89.4584
1723.0852,89.7689
1724.0494,90.143
1725.0137,90.5203
1725.9779,90.847
1726.9421,91.1046
1727.9064,91.3114
1728.8706,91.5059
1729.8348,91.7263
1730.7991,92.0011
1731.7633,92.3537
1732.7275,92.7975
1733.6918,93.2787
1734.6560,93.6488
1735.6202,93.8067
1736.5845,93.8095
1737.5487,93.786
1738.5129,93.8253
1739.4772,93.9423
1740.4414,94.0968
1741.4056,94.232
1742.3699,94.3141
1743.3341,94.3492
1744.2983,94.368
1745.2626,94.3999
1746.2268,94.4635
1747.1910,94.5785
1748.1553,94.7799
1749.1195,95.0981
1750.0837,95.4958
1751.0480,95.8581
1752.0122,96.0906
1752.9764,96.1925
1753.9407,96.225
1754.9049,96.2501
1755.8691,96.2997
1756.8334,96.377
1757.7976,96.4725
1758.7618,96.5806
1759.7261,96.706
1760.6903,96.8564
1761.6545,97.0274
1762.6188,97.1971
1763.5830,97.3416
1764.5472,97.4559
1765.5115,97.5529
1766.4757,97.6457
1767.4399,97.7331
1768.4042,97.801
1769.3684,97.8403
1770.3326,97.871
1771.2969,97.9457
1772.2611,98.1005
1773.2253,98.2941
1774.1896,98.445
1775.1538,98.5207
1776.1180,98.5534
1777.0823,98.5906
1778.0465,98.6587
1779.0107,98.7581
1779.9750,98.8772
1780.9392,99.0054
1781.9034,99.1365
1782.8677,99.2644
1783.8319,99.3767
1784.7961,99.4559
1785.7604,99.4912
1786.7246,99.4911
1787.6888,99.4795
1788.6531,99.4761
1789.6173,99.4811
1790.5815,99.4831
1791.5458,99.4832
1792.5100,99.4909
1793.4742,99.493
1794.4385,99.4677
1795.4027,99.4247
1796.3669,99.3959
1797.3312,99.402
1798.2954,99.4408
1799.2596,99.4972
1800.2239,99.5583
1801.1881,99.6141
1802.1523,99.6552
1803.1166,99.6751
1804.0808,99.6741
1805.0450,99.6569
1806.0093,99.6424
1806.9735,99.6279
1807.9377,99.6062
1808.9020,99.5869
1809.8662,99.5857
1810.8304,99.6132
1811.7947,99.6652
1812.7589,99.7266
1813.7231,99.7842
1814.6874,99.8328
1815.6516,99.8712
1816.6158,99.8986
1817.5801,99.9144
1818.5443,99.9203
1819.5085,99.9213
1820.4728,99.925
1821.4370,99.9366
1822.4012,99.9547
1823.3655,99.9719
1824.3297,99.9783
1825.2939,99.9662
1826.2582,99.9355
1827.2224,99.8988
1828.1866,99.8793
1829.1509,99.9006
1830.1151,99.9635
1831.0793,100.036
1832.0436,100.078
1833.0078,100.08
1833.9720,100.061
1834.9363,100.041
1835.9005,100.031
1836.8647,100.03
1837.8290,100.035
1838.7932,100.047
1839.7574,100.076
1840.7217,100.124
1841.6859,100.177
1842.6501,100.213
1843.6144,100.222
1844.5786,100.212
1845.5428,100.19
1846.5071,100.158
1847.4713,100.132
1848.4355,100.128
1849.3998,100.153
1850.3640,100.194
1851.3282,100.235
1852.2925,100.263
1853.2567,100.275
1854.2209,100.277
1855.1852,100.274
1856.1494,100.269
1857.1136,100.263
1858.0779,100.258
1859.0421,100.259
1860.0063,100.264
1860.9706,100.269
1861.9348,100.261
1862.8990,100.234
1863.8633,100.185
1864.8275,100.121
1865.7917,100.05
1866.7560,99.9957
1867.7202,99.9932
1868.6844,100.066
1869.6487,100.184
1870.6129,100.29
1871.5771,100.347
1872.5414,100.366
1873.5056,100.369
1874.4698,100.372
1875.4341,100.378
1876.3983,100.386
1877.3625,100.393
1878.3268,100.397
1879.2910,100.401
1880.2552,100.402
1881.2195,100.399
1882.1837,100.39
1883.1479,100.373
1884.1122,100.353
1885.0764,100.335
1886.0406,100.323
1887.0049,100.321
1887.9691,100.327
1888.9333,100.34
1889.8976,100.352
1890.8618,100.354
1891.8260,100.342
1892.7903,100.32
1893.7545,100.301
1894.7188,100.296
1895.6830,100.311
1896.6472,100.339
1897.6115,100.371
1898.5757,100.393
1899.5399,100.401
1900.5042,100.396
1901.4684,100.385
1902.4326,100.372
1903.3969,100.355
1904.3611,100.333
1905.3253,100.302
1906.2896,100.264
1907.2538,100.228
1908.2180,100.207
1909.1823,100.21
1910.1465,100.235
1911.1107,100.27
1912.0750,100.3
1913.0392,100.321
1914.0034,100.336
1914.9677,100.349
1915.9319,100.361
1916.8961,100.365
1917.8604,100.354
1918.8246,100.323
1919.7888,100.273
1920.7531,100.221
1921.7173,100.188
1922.6815,100.189
1923.6458,100.225
1924.6100,100.277
1925.5742,100.325
1926.5385,100.355
1927.5027,100.368
1928.4669,100.369
1929.4312,100.366
1930.3954,100.363
1931.3596,100.364
1932.3239,100.368
1933.2881,100.375
1934.2523,100.386
1935.2166,100.396
1936.1808,100.402
1937.1450,100.4
1938.1093,100.389
1939.0735,100.369
1940.0377,100.342
1941.0020,100.314
1941.9662,100.292
1942.9304,100.285
1943.8947,100.294
1944.8589,100.314
1945.8231,100.342
1946.7874,100.373
1947.7516,100.405
1948.7158,100.433
1949.6801,100.451
1950.6443,100.458
1951.6085,100.457
1952.5728,100.454
1953.5370,100.455
1954.5012,100.463
1955.4655,100.476
1956.4297,100.49
1957.3939,100.501
1958.3582,100.507
1959.3224,100.509
1960.2866,100.508
1961.2509,100.504
1962.2151,100.494
1963.1793,100.477
1964.1436,100.455
1965.1078,100.436
1966.0720,100.427
1967.0363,100.438
1968.0005,100.466
1968.9647,100.502
1969.9290,100.535
1970.8932,100.557
1971.8574,100.567
1972.8217,100.568
1973.7859,100.565
1974.7501,100.56
1975.7144,100.557
1976.6786,100.556
1977.6428,100.556
1978.6071,100.556
1979.5713,100.556
1980.5355,100.555
1981.4998,100.554
1982.4640,100.55
1983.4282,100.543
1984.3925,100.532
1985.3567,100.516
1986.3209,100.496
1987.2852,100.473
1988.2494,100.447
1989.2136,100.422
1990.1779,100.403
1991.1421,100.394
1992.1063,100.397
1993.0706,100.41
1994.0348,100.425
1994.9990,100.436
1995.9633,100.439
1996.9275,100.437
1997.8917,100.431
1998.8560,100.426
1999.8202,100.424
2000.7844,100.422
2001.7487,100.42
2002.7129,100.414
2003.6771,100.404
2004.6414,100.39
2005.6056,100.374
2006.5698,100.361
2007.5341,100.351
2008.4983,100.345
2009.4625,100.344
2010.4268,100.344
2011.3910,100.341
2012.3552,100.331
2013.3195,100.313
2014.2837,100.288
2015.2479,100.262
2016.2122,100.243
2017.1764,100.236
2018.1406,100.243
2019.1049,100.258
2020.0691,100.275
2021.0333,100.288
2021.9976,100.296
2022.9618,100.298
2023.9260,100.298
2024.8903,100.298
2025.8545,100.297
2026.8187,100.298
2027.7830,100.3
2028.7472,100.302
2029.7114,100.303
2030.6757,100.304
2031.6399,100.303
2032.6041,100.303
2033.5684,100.305
2034.5326,100.31
2035.4968,100.316
2036.4611,100.322
2037.4253,100.325
2038.3895,100.324
2039.3538,100.322
2040.3180,100.322
2041.2822,100.329
2042.2465,100.343
2043.2107,100.363
2044.1749,100.385
2045.1392,100.405
2046.1034,100.421
2047.0676,100.433
2048.0320,100.442
2048.9961,100.447
2049.9604,100.45
2050.9246,100.452
2051.8889,100.454
2052.8530,100.457
2053.8174,100.463
2054.7815,100.47
2055.7458,100.477
2056.7100,100.482
2057.6743,100.486
2058.6384,100.487
2059.6028,100.484
2060.5669,100.477
2061.5313,100.466
2062.4954,100.453
2063.4597,100.444
2064.4238,100.444
2065.3882,100.455
2066.3523,100.475
2067.3167,100.498
2068.2808,100.517
2069.2451,100.528
2070.2092,100.533
2071.1736,100.532
2072.1377,100.53
2073.1021,100.53
2074.0662,100.531
2075.0305,100.534
2075.9946,100.537
2076.9590,100.541
2077.9231,100.546
2078.8875,100.552
2079.8516,100.558
2080.8159,100.563
2081.7800,100.565
2082.7444,100.566
2083.7085,100.566
2084.6729,100.566
2085.6370,100.567
2086.6013,100.569
2087.5654,100.571
2088.5298,100.572
2089.4939,100.571
2090.4583,100.57
2091.4224,100.569
2092.3867,100.571
2093.3508,100.576
2094.3152,100.584
2095.2793,100.593
2096.2437,100.601
2097.2078,100.607
2098.1721,100.609
2099.1362,100.607
2100.1006,100.603
2101.0647,100.6
2102.0291,100.597
2102.9932,100.596
2103.9575,100.598
2104.9216,100.6
2105.8860,100.603
2106.8501,100.605
2107.8145,100.606
2108.7786,100.605
2109.7429,100.603
2110.7070,100.601
2111.6714,100.597
2112.6355,100.595
2113.5999,100.594
2114.5640,100.596
2115.5283,100.601
2116.4924,100.607
2117.4568,100.615
2118.4209,100.622
2119.3853,100.626
2120.3494,100.628
2121.3137,100.627
2122.2778,100.623
2123.2422,100.617
2124.2063,100.611
2125.1707,100.607
2126.1348,100.607
2127.0991,100.612
2128.0632,100.621
2129.0276,100.633
2129.9917,100.644
2130.9561,100.65
2131.9202,100.651
2132.8845,100.645
2133.8486,100.637
2134.8130,100.629
2135.7771,100.625
2136.7415,100.627
2137.7056,100.635
2138.6699,100.647
2139.6340,100.659
2140.5984,100.668
2141.5625,100.675
2142.5269,100.679
2143.4910,100.681
2144.4553,100.683
2145.4194,100.686
2146.3838,100.69
2147.3479,100.694
2148.3123,100.697
2149.2764,100.699
2150.2407,100.699
2151.2048,100.698
2152.1692,100.696
2153.1333,100.694
2154.0977,100.693
2155.0618,100.694
2156.0261,100.697
2156.9902,100.701
2157.9546,100.705
2158.9187,100.709
2159.8831,100.713
2160.8472,100.715
2161.8115,100.716
2162.7756,100.716
2163.7400,100.715
2164.7041,100.712
2165.6685,100.708
2166.6326,100.704
2167.5969,100.7
2168.5610,100.698
2169.5254,100.696
2170.4895,100.695
2171.4539,100.695
2172.4180,100.694
2173.3823,100.694
2174.3464,100.695
2175.3108,100.696
2176.2749,100.698
2177.2393,100.701
2178.2034,100.703
2179.1677,100.704
2180.1318,100.702
2181.0962,100.697
2182.0603,100.69
2183.0247,100.682
2183.9888,100.676
2184.9531,100.673
2185.9172,100.673
2186.8816,100.675
2187.8457,100.678
2188.8101,100.68
2189.7742,100.68
2190.7385,100.68
2191.7026,100.68
2192.6670,100.68
2193.6311,100.68
2194.5955,100.68
2195.5596,100.678
2196.5239,100.674
2197.4880,100.668
2198.4524,100.66
2199.4165,100.652
2200.3809,100.645
2201.3450,100.641
2202.3093,100.642
2203.2734,100.646
2204.2378,100.651
2205.2019,100.655
2206.1663,100.655
2207.1304,100.651
2208.0947,100.644
2209.0588,100.636
2210.0232,100.629
2210.9873,100.621
2211.9517,100.615
2212.9158,100.609
2213.8801,100.605
2214.8442,100.602
2215.8086,100.6
2216.7727,100.598
2217.7371,100.595
2218.7012,100.589
2219.6655,100.581
2220.6296,100.572
2221.5940,100.565
2222.5581,100.56
2223.5225,100.561
2224.4866,100.564
2225.4509,100.568
2226.4150,100.57
2227.3794,100.567
2228.3435,100.558
2229.3079,100.544
2230.2720,100.529
2231.2363,100.515
2232.2004,100.504
2233.1648,100.498
2234.1289,100.496
2235.0933,100.497
2236.0574,100.498
2237.0217,100.499
2237.9858,100.496
2238.9502,100.49
2239.9143,100.479
2240.8787,100.465
2241.8428,100.45
2242.8071,100.435
2243.7712,100.423
2244.7356,100.414
2245.6997,100.405
2246.6641,100.396
2247.6282,100.386
2248.5925,100.375
2249.5566,100.363
2250.5210,100.35
2251.4851,100.336
2252.4495,100.321
2253.4136,100.303
2254.3779,100.282
2255.3420,100.26
2256.3064,100.239
2257.2705,100.22
2258.2349,100.204
2259.1990,100.192
2260.1633,100.182
2261.1274,100.173
2262.0918,100.163
2263.0559,100.153
2264.0203,100.142
2264.9844,100.132
2265.9487,100.124
2266.9128,100.118
2267.8772,100.112
2268.8413,100.105
2269.8057,100.094
2270.7698,100.082
2271.7341,100.07
2272.6982,100.061
2273.6626,100.058
2274.6267,100.06
2275.5911,100.066
2276.5552,100.076
2277.5195,100.089
2278.4836,100.104
2279.4480,100.121
2280.4121,100.137
2281.3765,100.147
2282.3406,100.148
2283.3049,100.136
2284.2690,100.11
2285.2334,100.071
2286.1975,100.025
2287.1619,99.9763
2288.1260,99.928
2289.0903,99.881
2290.0544,99.8343
2291.0188,99.7873
2291.9829,99.7416
2292.9473,99.7016
2293.9114,99.6718
2294.8757,99.6546
2295.8398,99.6489
2296.8042,99.6514
2297.7683,99.6602
2298.7327,99.6764
2299.6968,99.7048
2300.6611,99.7494
2301.6252,99.8097
2302.5896,99.8774
2303.5537,99.9389
2304.5181,99.98
2305.4822,99.9942
2306.4465,99.9867
2307.4106,99.9755
2308.3750,99.984
2309.3391,100.03
2310.3035,100.118
2311.2676,100.234
2312.2319,100.355
2313.1960,100.459
2314.1604,100.538
2315.1245,100.599
2316.0889,100.659
2317.0530,100.732
2318.0173,100.824
2318.9814,100.923
2319.9458,101
2320.9099,101.014
2321.8743,100.927
2322.8384,100.726
2323.8027,100.438
2324.7668,100.129
2325.7312,99.8788
2326.6953,99.7475
2327.6597,99.7486
2328.6238,99.8408
2329.5881,99.9443
2330.5522,99.9787
2331.5166,99.9036
2332.4807,99.7359
2333.4451,99.5318
2334.4092,99.3493
2335.3735,99.2182
2336.3376,99.132
2337.3020,99.0606
2338.2661,98.9712
2339.2305,98.8595
2340.1946,98.7427
2341.1589,98.6857
2342.1230,98.7915
2343.0874,99.1165
2344.0515,99.5433
2345.0159,99.8104
2345.9800,99.759
2346.9443,99.4757
2347.9084,99.1791
2348.8728,99.0506
2349.8369,99.1475
2350.8013,99.3943
2351.7654,99.6271
2352.7297,99.6911
2353.6938,99.5504
2354.6582,99.3006
2355.6223,99.0445
2356.5867,98.798
2357.5508,98.5394
2358.5151,98.2905
2359.4792,98.1109
2360.4436,98.0328
2361.4077,98.0405
2362.3721,98.1155
2363.3362,98.2718
2364.3005,98.5373
2365.2646,98.9149
2366.2290,99.3697
2367.1931,99.8496
2368.1575,100.31
2369.1216,100.722
2370.0859,101.069
2371.0500,101.345
2372.0144,101.546
2372.9785,101.672
2373.9429,101.72
2374.9070,101.687
2375.8713,101.575
2376.8354,101.395
2377.7998,101.168
2378.7639,100.921
2379.7283,100.685
2380.6924,100.482
2381.6567,100.328
2382.6208,100.226
2383.5852,100.173
2384.5493,100.158
2385.5137,100.168
2386.4778,100.189
2387.4421,100.211
2388.4063,100.228
2389.3706,100.238
2390.3347,100.242
2391.2991,100.243
2392.2632,100.244
2393.2275,100.247
2394.1917,100.253
2395.1560,100.261
2396.1201,100.269
2397.0845,100.275
2398.0486,100.281
2399.0129,100.286
2399.9771,100.29
2400.9414,100.292
2401.9055,100.289
2402.8699,100.282
2403.8340,100.273
2404.7983,100.265
2405.7625,100.262
2406.7268,100.266
2407.6909,100.275
2408.6553,100.286
2409.6194,100.293
2410.5837,100.296
2411.5479,100.296
2412.5122,100.295
2413.4763,100.295
2414.4407,100.297
2415.4048,100.3
2416.3691,100.304
2417.3333,100.309
2418.2976,100.315
2419.2617,100.322
2420.2261,100.328
2421.1902,100.334
2422.1545,100.337
2423.1187,100.337
2424.0830,100.337
2425.0471,100.338
2426.0115,100.342
2426.9756,100.349
2427.9399,100.358
2428.9041,100.367
2429.8684,100.373
2430.8325,100.377
2431.7969,100.38
2432.7610,100.383
2433.7253,100.384
2434.6895,100.385
2435.6538,100.383
2436.6179,100.38
2437.5823,100.379
2438.5464,100.38
2439.5107,100.385
2440.4749,100.392
2441.4392,100.399
2442.4033,100.405
2443.3677,100.409
2444.3318,100.411
2445.2961,100.413
2446.2603,100.415
2447.2246,100.417
2448.1887,100.418
2449.1531,100.418
2450.1172,100.416
2451.0815,100.415
2452.0457,100.413
2453.0100,100.414
2453.9741,100.414
2454.9385,100.414
2455.9026,100.413
2456.8669,100.409
2457.8311,100.405
2458.7954,100.402
2459.7595,100.403
2460.7239,100.407
2461.6880,100.414
2462.6523,100.422
2463.6165,100.428
2464.5808,100.431
2465.5449,100.432
2466.5093,100.43
2467.4734,100.427
2468.4377,100.422
2469.4019,100.418
2470.3662,100.416
2471.3303,100.417
2472.2947,100.422
2473.2588,100.432
2474.2231,100.443
2475.1873,100.452
2476.1516,100.456
2477.1157,100.456
2478.0801,100.454
2479.0442,100.453
2480.0085,100.456
2480.9727,100.464
2481.9370,100.474
2482.9011,100.484
2483.8655,100.491
2484.8296,100.496
2485.7939,100.497
2486.7581,100.496
2487.7224,100.495
2488.6865,100.493
2489.6509,100.493
2490.6150,100.493
2491.5793,100.495
2492.5435,100.495
2493.5078,100.493
2494.4719,100.488
2495.4363,100.485
2496.4004,100.484
2497.3647,100.488
2498.3289,100.495
2499.2932,100.502
2500.2573,100.505
2501.2217,100.501
2502.1858,100.491
2503.1501,100.481
2504.1143,100.475
2505.0786,100.475
2506.0427,100.48
2507.0071,100.488
2507.9712,100.493
2508.9355,100.492
2509.8997,100.486
2510.8640,100.477
2511.8281,100.467
2512.7925,100.46
2513.7566,100.457
2514.7209,100.458
2515.6851,100.462
2516.6494,100.466
2517.6135,100.469
2518.5779,100.469
2519.5420,100.465
2520.5063,100.458
2521.4705,100.45
2522.4348,100.441
2523.3989,100.434
2524.3633,100.43
2525.3274,100.428
2526.2917,100.427
2527.2559,100.425
2528.2202,100.423
2529.1843,100.419
2530.1487,100.414
2531.1128,100.409
2532.0771,100.403
2533.0413,100.398
2534.0056,100.393
2534.9697,100.39
2535.9341,100.389
2536.8982,100.39
2537.8625,100.391
2538.8267,100.391
2539.7910,100.391
2540.7551,100.388
2541.7195,100.385
2542.6836,100.383
2543.6479,100.383
2544.6121,100.386
2545.5764,100.391
2546.5405,100.395
2547.5049,100.395
2548.4690,100.389
2549.4333,100.379
2550.3975,100.368
2551.3618,100.361
2552.3259,100.358
2553.2903,100.359
2554.2544,100.362
2555.2188,100.364
2556.1829,100.364
2557.1472,100.363
2558.1113,100.364
2559.0757,100.365
2560.0398,100.366
2561.0042,100.365
2561.9683,100.364
2562.9326,100.362
2563.8967,100.362
2564.8611,100.366
2565.8252,100.373
2566.7896,100.384
2567.7537,100.395
2568.7180,100.407
2569.6821,100.418
2570.6465,100.425
2571.6106,100.427
2572.5750,100.425
2573.5391,100.419
2574.5034,100.411
2575.4675,100.403
2576.4319,100.396
2577.3960,100.393
2578.3604,100.391
2579.3245,100.392
2580.2888,100.395
2581.2529,100.399
2582.2173,100.402
2583.1814,100.403
2584.1458,100.401
2585.1099,100.394
2586.0742,100.384
2587.0383,100.373
2588.0027,100.363
2588.9668,100.355
2589.9312,100.35
2590.8953,100.35
2591.8596,100.353
2592.8237,100.361
2593.7881,100.37
2594.7522,100.379
2595.7166,100.385
2596.6807,100.389
2597.6450,100.392
2598.6091,100.394
2599.5735,100.397
2600.5376,100.402
2601.5020,100.407
2602.4661,100.413
2603.4304,100.419
2604.3945,100.422
2605.3589,100.425
2606.3230,100.425
2607.2874,100.426
2608.2515,100.426
2609.2158,100.427
2610.1799,100.429
2611.1443,100.428
2612.1084,100.425
2613.0728,100.418
2614.0369,100.408
2615.0012,100.396
2615.9653,100.384
2616.9297,100.374
2617.8938,100.367
2618.8582,100.362
2619.8223,100.36
2620.7866,100.36
2621.7507,100.361
2622.7151,100.364
2623.6792,100.368
2624.6436,100.373
2625.6077,100.379
2626.5720,100.385
2627.5361,100.393
2628.5005,100.402
2629.4646,100.412
2630.4290,100.421
2631.3931,100.43
2632.3574,100.437
2633.3215,100.442
2634.2859,100.446
2635.2500,100.448
2636.2144,100.448
2637.1785,100.448
2638.1428,100.449
2639.1069,100.453
2640.0713,100.46
2641.0354,100.468
2641.9998,100.476
2642.9639,100.48
2643.9282,100.479
2644.8923,100.473
2645.8567,100.465
2646.8208,100.455
2647.7852,100.447
2648.7493,100.44
2649.7136,100.434
2650.6777,100.429
2651.6421,100.426
2652.6062,100.427
2653.5706,100.432
2654.5347,100.442
2655.4990,100.453
2656.4631,100.463
2657.4275,100.47
2658.3916,100.471
2659.3560,100.468
2660.3201,100.464
2661.2844,100.46
2662.2485,100.46
2663.2129,100.462
2664.1770,100.468
2665.1414,100.474
2666.1055,100.481
2667.0698,100.488
2668.0339,100.495
2668.9983,100.501
2669.9624,100.508
2670.9268,100.513
2671.8909,100.518
2672.8552,100.523
2673.8193,100.528
2674.7837,100.532
2675.7478,100.536
2676.7122,100.538
2677.6763,100.536
2678.6406,100.529
2679.6047,100.519
2680.5691,100.507
2681.5332,100.498
2682.4976,100.492
2683.4617,100.488
2684.4260,100.485
2685.3901,100.481
2686.3545,100.475
2687.3186,100.467
2688.2830,100.459
2689.2471,100.455
2690.2114,100.455
2691.1755,100.458
2692.1399,100.463
2693.1040,100.468
2694.0684,100.472
2695.0325,100.475
2695.9968,100.475
2696.9609,100.475
2697.9253,100.475
2698.8894,100.474
2699.8538,100.473
2700.8179,100.471
2701.7822,100.469
2702.7463,100.465
2703.7107,100.459
2704.6748,100.45
2705.6392,100.44
2706.6033,100.428
2707.5676,100.416
2708.5317,100.407
2709.4961,100.401
2710.4602,100.4
2711.4246,100.402
2712.3887,100.404
2713.3530,100.403
2714.3171,100.397
2715.2815,100.386
2716.2456,100.372
2717.2100,100.357
2718.1741,100.344
2719.1384,100.335
2720.1025,100.329
2721.0669,100.325
2722.0310,100.321
2722.9954,100.316
2723.9595,100.308
2724.9238,100.297
2725.8879,100.284
2726.8523,100.272
2727.8164,100.261
2728.7808,100.254
2729.7449,100.247
2730.7092,100.239
2731.6733,100.233
2732.6377,100.229
2733.6018,100.23
2734.5662,100.238
2735.5303,100.25
2736.4946,100.262
2737.4587,100.271
2738.4231,100.276
2739.3872,100.281
2740.3516,100.289
2741.3157,100.303
2742.2800,100.323
2743.2441,100.347
2744.2085,100.372
2745.1726,100.394
2746.1370,100.411
2747.1011,100.424
2748.0654,100.432
2749.0295,100.437
2749.9939,100.44
2750.9580,100.443
2751.9224,100.447
2752.8865,100.454
2753.8508,100.462
2754.8149,100.469
2755.7793,100.47
2756.7434,100.464
2757.7078,100.451
2758.6719,100.432
2759.6362,100.413
2760.6003,100.397
2761.5647,100.385
2762.5288,100.378
2763.4932,100.375
2764.4573,100.372
2765.4216,100.367
2766.3857,100.36
2767.3501,100.351
2768.3142,100.342
2769.2786,100.332
2770.2427,100.321
2771.2070,100.307
2772.1711,100.287
2773.1355,100.259
2774.0996,100.223
2775.0640,100.185
2776.0281,100.147
2776.9924,100.113
2777.9565,100.082
2778.9209,100.05
2779.8850,100.015
2780.8494,99.9765
2781.8135,99.9361
2782.7778,99.8965
2783.7419,99.86
2784.7063,99.8273
2785.6704,99.7977
2786.6348,99.7704
2787.5989,99.7445
2788.5632,99.7199
2789.5273,99.6967
2790.4917,99.6751
2791.4558,99.6554
2792.4202,99.6381
2793.3843,99.6237
2794.3486,99.6119
2795.3127,99.6015
2796.2771,99.5916
2797.2412,99.584
2798.2056,99.5728
2799.1697,99.5576
2800.1340,99.5388
2801.0981,99.5166
2802.0625,99.4915
2803.0266,99.4641
2803.9910,99.4355
2804.9551,99.4066
2805.9194,99.378
2806.8835,99.3485
2807.8479,99.3163
2808.8120,99.2788
2809.7764,99.2345
2810.7405,99.183
2811.7048,99.1257
2812.6689,99.0644
2813.6333,99.001
2814.5974,98.9363
2815.5618,98.8698
2816.5259,98.8002
2817.4902,98.7256
2818.4543,98.6442
2819.4187,98.5545
2820.3828,98.4558
2821.3472,98.3483
2822.3113,98.2328
2823.2756,98.1106
2824.2397,97.9825
2825.2041,97.8487
2826.1682,97.7083
2827.1326,97.5592
2828.0967,97.3983
2829.0610,97.2226
2830.0251,97.0296
2830.9895,96.8185
2831.9536,96.5898
2832.9180,96.3457
2833.8821,96.0884
2834.8464,95.8195
2835.8105,95.5387
2836.7749,95.2442
2837.7390,94.9339
2838.7034,94.6061
2839.6675,94.2605
2840.6318,93.897
2841.5959,93.5146
2842.5603,93.1114
2843.5244,92.6854
2844.4888,92.2388
2845.4529,91.7804
2846.4172,91.3265
2847.3813,90.8978
2848.3457,90.5132
2849.3098,90.1843
2850.2742,89.9122
2851.2383,89.6902
2852.2026,89.508
2853.1667,89.3568
2854.1311,89.2311
2855.0952,89.1273
2856.0596,89.0412
2857.0237,88.9663
2857.9880,88.8936
2858.9521,88.8136
2859.9165,88.7191
2860.8806,88.6058
2861.8450,88.4725
2862.8091,88.3209
2863.7734,88.1551
2864.7375,87.9815
2865.7019,87.8083
2866.6660,87.6439
2867.6304,87.4951
2868.5945,87.3663
2869.5588,87.2594
2870.5229,87.1752
2871.4873,87.1143
2872.4514,87.0769
2873.4158,87.0611
2874.3799,87.0619
2875.3442,87.0706
2876.3083,87.077
2877.2727,87.0721
2878.2368,87.0501
2879.2012,87.0103
2880.1653,86.9561
2881.1296,86.893
2882.0938,86.8268
2883.0581,86.7621
2884.0222,86.7012
2884.9866,86.6443
2885.9507,86.5885
2886.9150,86.5278
2887.8792,86.4548
2888.8435,86.3632
2889.8076,86.2516
2890.7720,86.1255
2891.7361,85.9949
2892.7004,85.8675
2893.6646,85.7413
2894.6289,85.6016
2895.5930,85.4262
2896.5574,85.1991
2897.5215,84.9223
2898.4858,84.6206
2899.4500,84.3321
2900.4143,84.0909
2901.3784,83.9114
2902.3428,83.7816
2903.3069,83.6714
2904.2712,83.5467
2905.2354,83.3834
2906.1997,83.1724
2907.1638,82.9167
2908.1282,82.625
2909.0923,82.3065
2910.0566,81.969
2911.0208,81.6205
2911.9851,81.2697
2912.9492,80.9256
2913.9136,80.5969
2914.8777,80.2908
2915.8420,80.0133
2916.8062,79.7688
2917.7705,79.5604
2918.7346,79.3903
2919.6990,79.2605
2920.6631,79.1731
2921.6274,79.1313
2922.5916,79.1384
2923.5559,79.196
2924.5200,79.303
2925.4844,79.4549
2926.4485,79.6449
2927.4128,79.8657
2928.3770,80.1111
2929.3413,80.3759
2930.3054,80.6562
2931.2698,80.9486
2932.2339,81.2495
2933.1982,81.5555
2934.1624,81.8633
2935.1267,82.1696
2936.0908,82.4709
2937.0552,82.763
2938.0193,83.0409
2938.9836,83.2995
2939.9478,83.5349
2940.9121,83.746
2941.8762,83.9347
2942.8406,84.1038
2943.8047,84.2547
2944.7690,84.3846
2945.7332,84.4857
2946.6975,84.5487
2947.6616,84.5666
2948.6260,84.5387
2949.5901,84.4718
2950.5544,84.3782
2951.5186,84.2713
2952.4829,84.1619
2953.4470,84.0564
2954.4114,83.9581
2955.3755,83.8688
2956.3398,83.7909
2957.3040,83.7279
2958.2683,83.6831
2959.2324,83.6587
2960.1968,83.6544
2961.1609,83.6677
2962.1252,83.6953
2963.0894,83.7345
2964.0537,83.7837
2965.0178,83.843
2965.9822,83.9138
2966.9463,83.9981
2967.9106,84.0992
2968.8748,84.2215
2969.8391,84.37
2970.8032,84.5486
2971.7676,84.7584
2972.7317,84.9968
2973.6960,85.2579
2974.6602,85.5345
2975.6245,85.8206
2976.5886,86.1124
2977.5530,86.4089
2978.5171,86.7106
2979.4814,87.0178
2980.4456,87.3286
2981.4099,87.6363
2982.3740,87.9301
2983.3384,88.1982
2984.3025,88.4363
2985.2668,88.6545
2986.2310,88.8802
2987.1953,89.1498
2988.1594,89.4936
2989.1238,89.9193
2990.0879,90.4044
2991.0522,90.9046
2992.0164,91.3719
2992.9807,91.7746
2993.9448,92.1075
2994.9092,92.3884
2995.8733,92.6452
2996.8376,92.9005
2997.8018,93.1646
2998.7661,93.4364
2999.7302,93.7101
3000.6946,93.9814
3001.6587,94.2505
3002.6230,94.5202
3003.5872,94.7937
3004.5515,95.0711
3005.5156,95.3489
3006.4800,95.6208
3007.4441,95.8793
3008.4084,96.1194
3009.3726,96.3403
3010.3369,96.5461
3011.3010,96.7443
3012.2654,96.9417
3013.2295,97.1404
3014.1938,97.337
3015.1580,97.5242
3016.1223,97.6952
3017.0864,97.847
3018.0508,97.9811
3019.0149,98.102
3019.9792,98.2143
3020.9434,98.3211
3021.9077,98.424
3022.8718,98.5235
3023.8362,98.6199
3024.8003,98.7126
3025.7646,98.7994
3026.7288,98.8774
3027.6931,98.9445
3028.6572,99.0014
3029.6216,99.0524
3030.5857,99.1046
3031.5500,99.1642
3032.5142,99.2344
3033.4785,99.3134
3034.4426,99.3964
3035.4070,99.4771
3036.3711,99.5508
3037.3354,99.6147
3038.2996,99.6686
3039.2639,99.7132
3040.2280,99.7498
3041.1924,99.751
3042.1565,99.7408
3043.1208,99.7243
3044.0850,99.7028
3045.0493,99.6786
3046.0134,99.6552
3046.9778,99.6348
3047.9419,99.6175
3048.9063,99.6004
3049.8704,99.579
3050.8347,99.5498
3051.7988,99.5126
3052.7632,99.4704
3053.7273,99.4289
3054.6917,99.3934
3055.6558,99.3677
3056.6201,99.3524
3057.5842,99.3446
3058.5486,99.338
3059.5127,99.3254
3060.4771,99.3006
3061.4412,99.2616
3062.4055,99.212
3063.3696,99.1604
3064.3340,99.1163
3065.2981,99.0862
3066.2625,99.0698
3067.2266,99.0614
3068.1909,99.0535
3069.1550,99.0405
3070.1194,99.021
3071.0835,98.9963
3072.0479,98.9678
3073.0120,98.9355
3073.9763,98.8979
3074.9404,98.8537
3075.9048,98.8036
3076.8689,98.751
3077.8333,98.701
3078.7974,98.6587
3079.7617,98.6267
3080.7258,98.6048
3081.6902,98.5896
3082.6543,98.5764
3083.6187,98.5604
3084.5828,98.5388
3085.5471,98.5105
3086.5112,98.4762
3087.4756,98.4371
3088.4397,98.3937
3089.4041,98.345
3090.3682,98.2898
3091.3325,98.2278
3092.2966,98.1605
3093.2610,98.091
3094.2251,98.0226
3095.1895,97.9567
3096.1536,97.893
3097.1179,97.8296
3098.0820,97.7656
3099.0464,97.7016
3100.0105,97.64
3100.9749,97.5835
3101.9390,97.5328
3102.9033,97.4865
3103.8674,97.4413
3104.8318,97.3935
3105.7959,97.3409
3106.7603,97.2831
3107.7244,97.221
3108.6887,97.1567
3109.6528,97.0917
3110.6172,97.0264
3111.5813,96.9603
3112.5457,96.8927
3113.5098,96.8233
3114.4741,96.7533
3115.4382,96.685
3116.4026,96.6204
3117.3667,96.5605
3118.3311,96.505
3119.2952,96.4526
3120.2595,96.4023
3121.2236,96.3538
3122.1880,96.3076
3123.1521,96.2639
3124.1165,96.222
3125.0806,96.1799
3126.0449,96.1345
3127.0090,96.0823
3127.9734,96.0203
3128.9375,95.9471
3129.9019,95.8644
3130.8660,95.7775
3131.8303,95.695
3132.7944,95.6257
3133.7588,95.5743
3134.7229,95.5396
3135.6873,95.5136
3136.6514,95.4856
3137.6157,95.4466
3138.5798,95.3928
3139.5442,95.3263
3140.5083,95.2531
3141.4727,95.179
3142.4368,95.1073
3143.4011,95.038
3144.3652,94.9695
3145.3296,94.9009
3146.2937,94.8336
3147.2581,94.7704
3148.2222,94.7135
3149.1865,94.6623
3150.1506,94.6124
3151.1150,94.5573
3152.0791,94.4919
3153.0435,94.4155
3154.0076,94.3324
3154.9719,94.2495
3155.9360,94.1726
3156.9004,94.1038
3157.8645,94.041
3158.8289,93.9802
3159.7930,93.9185
3160.7573,93.855
3161.7214,93.7909
3162.6858,93.7271
3163.6499,93.6633
3164.6143,93.598
3165.5784,93.5298
3166.5427,93.4588
3167.5068,93.3866
3168.4712,93.3154
3169.4353,93.3044
3170.3997,93.2358
3171.3638,93.1656
3172.3281,93.0925
3173.2922,93.0168
3174.2566,92.9406
3175.2207,92.8669
3176.1851,92.7979
3177.1492,92.734
3178.1135,92.6739
3179.0776,92.6151
3180.0420,92.556
3181.0061,92.4967
3181.9705,92.4387
3182.9346,92.3838
3183.8989,92.3317
3184.8630,92.2796
3185.8274,92.223
3186.7915,92.1588
3187.7559,92.0875
3188.7200,92.0137
3189.6843,91.9441
3190.6484,91.8827
3191.6128,91.8285
3192.5769,91.7755
3193.5413,91.7164
3194.5054,91.6473
3195.4697,91.5704
3196.4338,91.4924
3197.3982,91.4209
3198.3623,91.3603
3199.3267,91.3108
3200.2908,91.2698
3201.2551,91.234
3202.2192,91.2004
3203.1836,91.1659
3204.1477,91.1266
3205.1121,91.0797
3206.0762,91.0246
3207.0405,90.9643
3208.0046,90.9033
3208.9690,90.8455
3209.9331,90.7913
3210.8975,90.7385
3211.8616,90.6852
3212.8259,90.632
3213.7900,90.5826
3214.7544,90.54
3215.7185,90.5044
3216.6829,90.4714
3217.6470,90.4354
3218.6113,90.3927
3219.5754,90.344
3220.5398,90.2929
3221.5039,90.2433
3222.4683,90.1969
3223.4324,90.1528
3224.3967,90.1095
3225.3608,90.0666
3226.3252,90.0255
3227.2893,89.988
3228.2537,89.9549
3229.2178,89.9249
3230.1821,89.895
3231.1462,89.8615
3232.1106,89.8221
3233.0747,89.7759
3234.0391,89.7246
3235.0032,89.6711
3235.9675,89.6191
3236.9316,89.5711
3237.8960,89.5276
3238.8601,89.4874
3239.8245,89.4485
3240.7886,89.4095
3241.7529,89.3705
3242.7170,89.333
3243.6814,89.2986
3244.6455,89.268
3245.6099,89.2403
3246.5740,89.2128
3247.5383,89.1826
3248.5024,89.1475
3249.4668,89.107
3250.4309,89.0623
3251.3953,89.0161
3252.3594,88.9718
3253.3237,88.9326
3254.2878,88.9001
3255.2522,88.8739
3256.2163,88.8519
3257.1807,88.8313
3258.1448,88.8093
3259.1091,88.7839
3260.0732,88.754
3261.0376,88.7189
3262.0017,88.6791
3262.9661,88.6364
3263.9302,88.5936
3264.8945,88.5536
3265.8586,88.5179
3266.8230,88.486
3267.7871,88.4549
3268.7515,88.4211
3269.7156,88.3823
3270.6799,88.3392
3271.6440,88.2952
3272.6084,88.2548
3273.5725,88.2218
3274.5369,88.1973
3275.5010,88.1797
3276.4653,88.1658
3277.4294,88.1528
3278.3938,88.1386
3279.3579,88.1226
3280.3223,88.1044
3281.2864,88.0841
3282.2507,88.061
3283.2148,88.0349
3284.1792,88.0052
3285.1433,87.9721
3286.1077,87.9362
3287.0718,87.8987
3288.0361,87.8608
3289.0002,87.824
3289.9646,87.7899
3290.9287,87.7602
3291.8931,87.7362
3292.8572,87.7183
3293.8215,87.7056
3294.7856,87.6949
3295.7500,87.682
3296.7141,87.6629
3297.6785,87.6356
3298.6426,87.6013
3299.6069,87.5639
3300.5710,87.528
3301.5354,87.4971
3302.4995,87.4713
3303.4639,87.4484
3304.4280,87.4252
3305.3923,87.3998
3306.3564,87.3724
3307.3208,87.3452
3308.2849,87.3205
3309.2493,87.2996
3310.2134,87.2821
3311.1777,87.2665
3312.1418,87.2516
3313.1062,87.2373
3314.0703,87.2243
3315.0347,87.2128
3315.9988,87.2021
3316.9631,87.19
3317.9272,87.1741
3318.8916,87.1538
3319.8557,87.1309
3320.8201,87.1084
3321.7842,87.0888
3322.7485,87.0721
3323.7126,87.0561
3324.6770,87.0381
3325.6411,87.0175
3326.6055,86.9965
3327.5696,86.9785
3328.5339,86.9645
3329.4980,86.9519
3330.4624,86.9362
3331.4265,86.9147
3332.3909,86.8892
3333.3550,86.8658
3334.3193,86.8513
3335.2834,86.8481
3336.2478,86.852
3337.2119,86.8547
3338.1763,86.8487
3339.1404,86.8316
3340.1047,86.8072
3341.0688,86.7812
3342.0332,86.7583
3342.9973,86.7393
3343.9617,86.7223
3344.9258,86.7056
3345.8901,86.6894
3346.8542,86.6754
3347.8186,86.6656
3348.7827,86.6593
3349.7471,86.6537
3350.7112,86.6446
3351.6755,86.6289
3352.6396,86.6063
3353.6040,86.5796
3354.5681,86.5534
3355.5325,86.533
3356.4966,86.5224
3357.4609,86.523
3358.4250,86.5329
3359.3894,86.5471
3360.3535,86.5596
3361.3179,86.5653
3362.2820,86.5623
3363.2463,86.5528
3364.2104,86.5421
3365.1748,86.5363
3366.1389,86.5394
3367.1033,86.5522
3368.0674,86.572
3369.0317,86.5948
3369.9958,86.6162
3370.9602,86.6328
3371.9243,86.6419
3372.8887,86.642
3373.8528,86.6333
3374.8171,86.6181
3375.7813,86.6009
3376.7456,86.5862
3377.7097,86.5771
3378.6741,86.5736
3379.6382,86.5731
3380.6025,86.5731
3381.5667,86.5721
3382.5310,86.5716
3383.4951,86.5741
3384.4595,86.5816
3385.4236,86.5944
3386.3879,86.6111
3387.3521,86.6301
3388.3164,86.6509
3389.2805,86.6728
3390.2449,86.6941
3391.2090,86.712
3392.1733,86.7244
3393.1375,86.7321
3394.1018,86.7406
3395.0659,86.7576
3396.0303,86.7878
3396.9944,86.8288
3397.9587,86.8703
3398.9229,86.8994
3399.8872,86.9089
3400.8513,86.9016
3401.8157,86.8899
3402.7798,86.8884
3403.7441,86.9063
3404.7083,86.9431
3405.6726,86.9905
3406.6367,87.0379
3407.6011,87.0781
3408.5652,87.1096
3409.5295,87.1351
3410.4937,87.1589
3411.4580,87.1841
3412.4221,87.2112
3413.3865,87.2389
3414.3506,87.2646
3415.3149,87.2862
3416.2791,87.3028
3417.2434,87.317
3418.2075,87.3343
3419.1719,87.3621
3420.1360,87.4054
3421.1003,87.463
3422.0645,87.5274
3423.0288,87.5885
3423.9929,87.6394
3424.9573,87.6795
3425.9214,87.7135
3426.8857,87.7488
3427.8499,87.791
3428.8142,87.8412
3429.7783,87.8963
3430.7427,87.9513
3431.7068,88.0025
3432.6711,88.0498
3433.6353,88.0957
3434.5996,88.1435
3435.5637,88.1944
3436.5281,88.2467
3437.4922,88.2965
3438.4565,88.3398
3439.4207,88.3741
3440.3850,88.3995
3441.3491,88.4186
3442.3135,88.4358
3443.2776,88.4565
3444.2419,88.4868
3445.2061,88.5323
3446.1704,88.5965
3447.1345,88.6778
3448.0989,88.769
3449.0630,88.8607
3450.0273,88.9462
3450.9915,89.0227
3451.9558,89.0908
3452.9199,89.1511
3453.8843,89.2037
3454.8484,89.2478
3455.8127,89.2832
3456.7769,89.3117
3457.7412,89.337
3458.7053,89.364
3459.6697,89.3975
3460.6338,89.4405
3461.5981,89.4936
3462.5623,89.5554
3463.5266,89.6232
3464.4907,89.6942
3465.4551,89.7662
3466.4192,89.8371
3467.3835,89.9048
3468.3477,89.967
3469.3120,90.0217
3470.2761,90.0691
3471.2405,90.1125
3472.2046,90.1581
3473.1689,90.2115
3474.1331,90.2747
3475.0974,90.3433
3476.0615,90.4081
3477.0259,90.4609
3477.9900,90.4992
3478.9543,90.5293
3479.9185,90.563
3480.8828,90.6118
3481.8469,90.6795
3482.8113,90.7597
3483.7754,90.841
3484.7397,90.9145
3485.7039,90.9786
3486.6682,91.0386
3487.6323,91.1016
3488.5967,91.1712
3489.5608,91.2446
3490.5251,91.314
3491.4893,91.3726
3492.4536,91.4187
3493.4177,91.4574
3494.3821,91.4978
3495.3462,91.5464
3496.3105,91.6019
3497.2747,91.6553
3498.2390,91.6969
3499.2031,91.7241
3500.1675,91.7457
3501.1316,91.779
3502.0959,91.8402
3503.0601,91.9307
3504.0244,92.0333
3504.9885,92.1256
3505.9529,92.1969
3506.9170,92.2533
3507.8813,92.3109
3508.8455,92.3844
3509.8098,92.4781
3510.7739,92.5826
3511.7383,92.6824
3512.7024,92.7673
3513.6667,92.8377
3514.6309,92.9001
3515.5952,92.9603
3516.5593,93.0196
3517.5237,93.0754
3518.4878,93.1249
3519.4521,93.1686
3520.4163,93.2104
3521.3806,93.2552
3522.3447,93.3053
3523.3091,93.358
3524.2732,93.4086
3525.2375,93.4562
3526.2017,93.5076
3527.1660,93.5755
3528.1301,93.6698
3529.0945,93.7892
3530.0586,93.9198
3531.0229,94.0442
3531.9871,94.1514
3532.9514,94.241
3533.9155,94.3212
3534.8799,94.4038
3535.8440,94.4967
3536.8083,94.598
3537.7725,94.6959
3538.7368,94.7754
3539.7009,94.828
3540.6653,94.8552
3541.6294,94.8676
3542.5938,94.8838
3543.5579,94.9279
3544.5222,95.02
3545.4863,95.1597
3546.4507,95.3198
3547.4148,95.4656
3548.3792,95.5807
3549.3433,95.6738
3550.3076,95.7668
3551.2717,95.8794
3552.2361,96.0185
3553.2002,96.1737
3554.1646,96.3253
3555.1287,96.4587
3556.0930,96.5709
3557.0571,96.6655
3558.0215,96.7435
3558.9856,96.8017
3559.9500,96.8367
3560.9141,96.8503
3561.8784,96.8524
3562.8425,96.8561
3563.8069,96.8762
3564.7710,96.9382
3565.7354,97.0857
3566.6995,97.3423
3567.6638,97.6492
3568.6279,97.9005
3569.5923,98.0476
3570.5564,98.1183
3571.5208,98.1628
3572.4849,98.2113
3573.4492,98.269
3574.4133,98.3292
3575.3777,98.3874
3576.3418,98.4455
3577.3062,98.5088
3578.2703,98.5779
3579.2346,98.6461
3580.1987,98.7029
3581.1631,98.7424
3582.1272,98.7684
3583.0916,98.7888
3584.0557,98.8087
3585.0200,98.8342
3585.9841,98.8849
3586.9485,98.9816
3587.9126,99.0985
3588.8770,99.1702
3589.8411,99.1631
3590.8054,99.1007
3591.7695,99.0255
3592.7339,98.9668
3593.6980,98.9353
3594.6624,98.9274
3595.6265,98.9298
3596.5908,98.9303
3597.5549,98.9321
3598.5193,98.9539
3599.4834,99.0136
3600.4478,99.1111
3601.4119,99.2242
3602.3762,99.3274
3603.3403,99.4118
3604.3047,99.4852
3605.2688,99.562
3606.2332,99.6556
3607.1973,99.7715
3608.1616,99.8969
3609.1257,99.9869
3610.0901,100.015
3611.0542,99.9751
3612.0186,99.8892
3612.9829,99.7937
3613.9470,99.7209
3614.9114,99.6861
3615.8755,99.6871
3616.8398,99.7117
3617.8040,99.7495
3618.7683,99.7913
3619.7324,99.8145
3620.6968,99.7853
3621.6609,99.6994
3622.6252,99.6021
3623.5894,99.5563
3624.5537,99.596
3625.5178,99.7024
3626.4822,99.8185
3627.4463,99.9058
3628.4106,99.9752
3629.3748,100.02
3630.3391,99.9908
3631.3032,99.8938
3632.2676,99.7966
3633.2317,99.7595
3634.1960,99.7948
3635.1602,99.8731
3636.1245,99.9517
3637.0886,100.001
3638.0530,100.013
3639.0171,99.9956
3639.9814,99.9587
3640.9456,99.9109
3641.9099,99.862
3642.8740,99.8256
3643.8384,99.8098
3644.8025,99.7982
3645.7668,99.7392
3646.7310,99.5874
3647.6953,99.4238
3648.6594,99.4679
3649.6238,99.7384
3650.5879,99.9688
3651.5522,100.016
3652.5164,99.952
3653.4807,99.8795
3654.4448,99.8423
3655.4092,99.8288
3656.3733,99.8077
3657.3376,99.7568
3658.3018,99.6796
3659.2661,99.6022
3660.2302,99.5519
3661.1946,99.5347
3662.1587,99.5363
3663.1230,99.5413
3664.0872,99.5509
3665.0515,99.5758
3666.0156,99.6142
3666.9800,99.6364
3667.9441,99.6076
3668.9084,99.534
3669.8726,99.461
3670.8369,99.4167
3671.8010,99.3938
3672.7654,99.3728
3673.7295,99.3406
3674.6938,99.3171
3675.6580,99.348
3676.6223,99.4233
3677.5864,99.4753
3678.5508,99.4756
3679.5149,99.4482
3680.4792,99.4177
3681.4434,99.3882
3682.4077,99.3604
3683.3718,99.3465
3684.3362,99.3623
3685.3003,99.4005
3686.2646,99.4139
3687.2288,99.3431
3688.1931,99.195
3689.1572,99.0716
3690.1216,99.0499
3691.0857,99.0966
3692.0500,99.1521
3693.0142,99.1976
3693.9785,99.2394
3694.9426,99.2844
3695.9070,99.3364
3696.8711,99.3981
3697.8354,99.4694
3698.7996,99.5435
3699.7639,99.6094
3700.7280,99.6589
3701.6924,99.6882
3702.6565,99.6936
3703.6208,99.6742
3704.5850,99.64
3705.5493,99.6073
3706.5134,99.5817
3707.4778,99.5511
3708.4419,99.5075
3709.4063,99.4946
3710.3704,99.6103
3711.3347,99.8806
3712.2988,100.173
3713.2632,100.339
3714.2273,100.351
3715.1917,100.27
3716.1558,100.157
3717.1201,100.041
3718.0842,99.9209
3719.0486,99.7896
3720.0127,99.6485
3720.9771,99.5109
3721.9412,99.395
3722.9055,99.3161
3723.8696,99.2821
3724.8340,99.2885
3725.7981,99.3173
3726.7625,99.3489
3727.7266,99.3782
3728.6909,99.4122
3729.6550,99.4534
3730.6194,99.4842
3731.5835,99.4709
3732.5479,99.3956
3733.5120,99.303
3734.4763,99.2886
3735.4404,99.3785
3736.4048,99.4737
3737.3689,99.492
3738.3333,99.4717
3739.2974,99.5147
3740.2617,99.6915
3741.2258,99.9876
3742.1902,100.295
3743.1543,100.462
3744.1187,100.394
3745.0828,100.123
3746.0471,99.7672
3747.0112,99.4465
3747.9756,99.2309
3748.9397,99.1482
3749.9041,99.2175
3750.8682,99.4119
3751.8325,99.5877
3752.7966,99.6346
3753.7610,99.5382
3754.7251,99.4
3755.6895,99.2983
3756.6536,99.2597
3757.6179,99.2801
3758.5820,99.343
3759.5464,99.4198
3760.5105,99.4794
3761.4749,99.5103
3762.4390,99.5223
3763.4033,99.5291
3764.3674,99.5366
3765.3318,99.5439
3766.2959,99.5489
3767.2603,99.5529
3768.2244,99.5621
3769.1887,99.5829
3770.1528,99.6125
3771.1172,99.6363
3772.0813,99.641
3773.0457,99.6289
3774.0098,99.6138
3774.9741,99.6051
3775.9382,99.5971
3776.9026,99.578
3777.8667,99.5465
3778.8311,99.5134
3779.7952,99.4848
3780.7595,99.4562
3781.7236,99.4248
3782.6880,99.3984
3783.6521,99.3909
3784.6165,99.4144
3785.5806,99.4708
3786.5449,99.5481
3787.5090,99.6268
3788.4734,99.6908
3789.4375,99.7352
3790.4019,99.7628
3791.3660,99.7748
3792.3303,99.7635
3793.2944,99.7159
3794.2588,99.628
3795.2229,99.5182
3796.1873,99.4228
3797.1514,99.3726
3798.1157,99.3698
3799.0798,99.3888
3800.0442,99.4009
3801.0083,99.3985
3801.9727,99.3914
3802.9368,99.3949
3803.9011,99.431
3804.8652,99.5168
3805.8296,99.6422
3806.7937,99.7617
3807.7581,99.8161
3808.7222,99.7797
3809.6865,99.691
3810.6506,99.6236
3811.6150,99.6256
3812.5791,99.6833
3813.5435,99.732
3814.5076,99.709
3815.4719,99.6052
3816.4360,99.465
3817.4004,99.3435
3818.3645,99.277
3819.3289,99.2793
3820.2930,99.3399
3821.2573,99.4127
3822.2214,99.434
3823.1858,99.3811
3824.1499,99.2928
3825.1143,99.2287
3826.0784,99.2255
3827.0427,99.283
3828.0068,99.3733
3828.9712,99.4609
3829.9353,99.5211
3830.8997,99.5499
3831.8638,99.5597
3832.8281,99.5661
3833.7922,99.5727
3834.7566,99.5636
3835.7207,99.5132
3836.6851,99.4124
3837.6492,99.2911
3838.6135,99.2018
3839.5776,99.1779
3840.5420,99.2196
3841.5061,99.3106
3842.4705,99.4263
3843.4346,99.5297
3844.3989,99.5805
3845.3630,99.5614
3846.3274,99.4989
3847.2915,99.4566
3848.2559,99.5028
3849.2200,99.6707
3850.1843,99.929
3851.1484,100.188
3852.1128,100.373
3853.0769,100.477
3854.0413,100.461
3855.0054,100.257
3855.9697,99.938
3856.9338,99.6519
3857.8982,99.492
3858.8623,99.4618
3859.8267,99.5001
3860.7908,99.5269
3861.7551,99.498
3862.7192,99.4385
3863.6836,99.4127
3864.6477,99.4572
3865.6121,99.5564
3866.5762,99.6669
3867.5405,99.7445
3868.5046,99.7607
3869.4690,99.7189
3870.4331,99.655
3871.3975,99.609
3872.3616,99.5968
3873.3259,99.6114
3874.2900,99.6438
3875.2544,99.6901
3876.2185,99.7436
3877.1829,99.7864
3878.1470,99.7936
3879.1113,99.7533
3880.0754,99.6849
3881.0398,99.6336
3882.0039,99.6398
3882.9683,99.7145
3883.9324,99.834
3884.8967,99.9512
3885.8608,100.019
3886.8252,100.017
3887.7893,99.9581
3888.7537,99.8717
3889.7178,99.7822
3890.6821,99.7085
3891.6462,99.6652
3892.6106,99.6511
3893.5747,99.6537
3894.5391,99.6711
3895.5032,99.7109
3896.4675,99.7675
3897.4316,99.8154
3898.3960,99.8287
3899.3601,99.8043
3900.3245,99.7615
3901.2886,99.7236
3902.2529,99.7059
3903.2170,99.7137
3904.1814,99.7375
3905.1455,99.7578
3906.1099,99.7644
3907.0740,99.765
3908.0383,99.7732
3909.0024,99.7938
3909.9668,99.8197
3910.9309,99.8394
3911.8953,99.846
3912.8594,99.8402
3913.8237,99.8276
3914.7878,99.8146
3915.7522,99.8083
3916.7163,99.8135
3917.6807,99.8255
3918.6448,99.8278
3919.6091,99.8054
3920.5732,99.7583
3921.5376,99.6998
3922.5017,99.6474
3923.4661,99.6138
3924.4302,99.6006
3925.3945,99.5977
3926.3586,99.5919
3927.3230,99.5786
3928.2871,99.5636
3929.2515,99.5587
3930.2156,99.5768
3931.1799,99.6261
3932.1440,99.7001
3933.1084,99.7772
3934.0725,99.8363
3935.0369,99.8706
3936.0010,99.8854
3936.9653,99.8873
3937.9294,99.8779
3938.8938,99.8552
3939.8579,99.8201
3940.8223,99.7823
3941.7864,99.7579
3942.7507,99.7579
3943.7148,99.7788
3944.6792,99.805
3945.6433,99.8202
3946.6077,99.8151
3947.5718,99.7919
3948.5361,99.7621
3949.5002,99.7396
3950.4646,99.7311
3951.4287,99.7353
3952.3931,99.7474
3953.3572,99.7639
3954.3215,99.7823
3955.2856,99.8003
3956.2500,99.8146
3957.2141,99.8227
3958.1785,99.825
3959.1426,99.8258
3960.1069,99.8319
3961.0710,99.849
3962.0354,99.8764
3962.9995,99.9069
3963.9639,99.9306
3964.9280,99.9403
3965.8923,99.9348
3966.8564,99.9188
3967.8208,99.8992
3968.7849,99.8823
3969.7493,99.8716
3970.7134,99.8679
3971.6777,99.8706
3972.6418,99.879
3973.6062,99.8927
3974.5703,99.9108
3975.5347,99.9317
3976.4988,99.9526
3977.4631,99.9703
3978.4272,99.9814
3979.3916,99.9831
3980.3557,99.9745
3981.3201,99.9579
3982.2842,99.9385
3983.2485,99.9228
3984.2126,99.9157
3985.1770,99.9183
3986.1411,99.9276
3987.1055,99.9378
3988.0696,99.9431
3989.0339,99.9392
3989.9980,99.9256
3990.9624,99.9054
3991.9265,99.8844
3992.8909,99.8693
3993.8550,99.8652
3994.8193,99.8733
3995.7834,99.8903
3996.7478,99.9092
3997.7119,99.9237
3998.6763,99.9305
3999.6404,99.9308
4000.6047,99.7501

##### Extended Information
[Comments]
Sample name
Comment
User
Division
Company,HANKYONG

[Detailed Information]
Creation date,4/24/2024 11:29 AM

Data array type,Linear data array
Horizontal axis,Wavenumber [cm-1]
Vertical axis,%T
Start,649.893 cm-1
End,4000.6 cm-1
Data interval,0.964233 cm-1
Data points,3476    

[Measurement Information]
Model Name,FT/IR-4700typeA
Serial Number,D056761788

Accessory,ATR PRO ONE
Accessory S/N,C174761809
Incident angle,45 deg

Measurement Date,4/24/2024 11:28 AM

Light Source,Standard
Detector,TGS
Accumulation,32
Resolution,4 cm-1
Zero Filling,On
Apodization,Cosine
Gain,Auto (4)
Aperture,Auto (7.1 mm)
Scanning Speed,Auto (2 mm/sec)
Filter,Auto (30000 Hz)

