TITLE,
DATA TYPE,INFRARED SPECTRUM
ORIGIN,JASCO
OWNER,
DATE,24/04/24
TIME,11:30:57
SPECTROMETER/DATA SYSTEM,
LOCALE,1033
RESOLUTION,
DELTAX,0.964233
XUNITS,1/CM
YUNITS,TRANSMITTANCE
FIRSTX,  649.8934
LASTX, 4000.6047
NPOINTS,    3476
FIRSTY,    97.20408
MAXY,   101.06861
MINY,    67.10301
XYDATA
649.8934,97.2041
650.8576,97.1936
651.8218,97.2263
652.7861,97.2011
653.7503,97.1529
654.7145,97.0768
655.6788,96.9716
656.6430,96.8467
657.6072,96.7197
658.5715,96.6167
659.5357,96.569
660.4999,96.5974
661.4642,96.6893
662.4284,96.7895
663.3926,96.8136
664.3569,96.6646
665.3211,96.2386
666.2853,95.4526
667.2496,94.374
668.2138,93.4157
669.1780,93.1147
670.1423,93.4869
671.1065,94.1114
672.0707,94.6595
673.0350,95.0103
673.9992,95.1549
674.9634,95.1346
675.9277,95.0209
676.8919,94.895
677.8561,94.8195
678.8204,94.8218
679.7846,94.8985
680.7488,95.0284
681.7131,95.1821
682.6773,95.332
683.6415,95.4613
684.6058,95.5694
685.5700,95.6666
686.5342,95.7602
687.4985,95.8443
688.4627,95.9004
689.4269,95.908
690.3912,95.8603
691.3554,95.7826
692.3196,95.7448
693.2839,95.8413
694.2481,96.1156
695.2123,96.5092
696.1766,96.9174
697.1408,97.265
698.1050,97.5232
699.0693,97.696
700.0335,97.8035
700.9977,97.8701
701.9620,97.9154
702.9262,97.9517
703.8904,97.9854
704.8547,98.0189
705.8189,98.0499
706.7831,98.07
707.7474,98.0663
708.7116,98.0274
709.6758,97.9486
710.6401,97.835
711.6043,97.6975
712.5685,97.5457
713.5328,97.3805
714.4970,97.1912
715.4612,97.1557
716.4255,96.863
717.3897,96.5385
718.3539,96.2235
719.3182,95.9745
720.2824,95.837
721.2466,95.8185
722.2109,95.8829
723.1751,95.9699
724.1393,96.0245
725.1036,96.0167
726.0678,95.9447
727.0320,95.8265
727.9963,95.6876
728.9605,95.5494
729.9247,95.4235
730.8890,95.3102
731.8532,95.2006
732.8174,95.0803
733.7817,94.9328
734.7459,94.7434
735.7101,94.502
736.6744,94.2033
737.6386,93.8464
738.6028,93.4345
739.5671,92.9767
740.5313,92.49
741.4955,91.9985
742.4598,91.5299
743.4240,91.1085
744.3882,90.7495
745.3525,90.4567
746.3167,90.2253
747.2809,90.0464
748.2452,89.9104
749.2094,89.8101
750.1736,89.7411
751.1379,89.702
752.1021,89.6946
753.0663,89.7221
754.0306,89.7855
754.9948,89.8811
755.9590,89.9987
756.9233,90.1247
757.8875,90.2468
758.8517,90.3587
759.8160,90.4612
760.7802,90.5599
761.7444,90.6606
762.7087,90.765
763.6729,90.8715
764.6371,90.9788
765.6014,91.0913
766.5656,91.2206
767.5298,91.383
768.4941,91.5907
769.4583,91.8442
770.4225,92.1285
771.3868,92.4166
772.3510,92.6787
773.3152,92.8915
774.2795,93.0447
775.2437,93.1404
776.2079,93.1896
777.1722,93.2059
778.1364,93.2009
779.1006,93.1805
780.0649,93.1449
781.0291,93.0898
781.9933,93.0104
782.9576,92.905
783.9218,92.7784
784.8860,92.6413
785.8503,92.5064
786.8145,92.3836
787.7787,92.276
788.7430,92.1797
789.7072,92.0868
790.6714,91.9903
791.6357,91.8861
792.5999,91.774
793.5641,91.6544
794.5284,91.5263
795.4926,91.3855
796.4568,91.2271
797.4211,91.0482
798.3853,90.8506
799.3495,90.6413
800.3138,90.4289
801.2780,90.2204
802.2422,90.0183
803.2065,89.8221
804.1707,89.6309
805.1349,89.4473
806.0992,89.2784
807.0634,89.1345
808.0276,89.0254
808.9919,88.9575
809.9561,88.9314
810.9203,88.9426
811.8846,88.9821
812.8488,89.0402
813.8130,89.1081
814.7773,89.181
815.7415,89.2581
816.7057,89.3407
817.6700,89.4289
818.6342,89.5194
819.5984,89.6053
820.5627,89.6792
821.5269,89.7367
822.4911,89.7787
823.4554,89.8103
824.4196,89.8375
825.3839,89.8641
826.3481,89.8908
827.3123,89.9159
828.2766,89.9367
829.2408,89.9496
830.2050,89.9498
831.1693,89.9308
832.1335,89.8864
833.0977,89.8132
834.0620,89.7132
835.0262,89.5932
835.9904,89.4616
836.9547,89.3243
837.9189,89.1817
838.8831,89.029
839.8474,88.8592
840.8116,88.6671
841.7758,88.4516
842.7401,88.2156
843.7043,87.9651
844.6685,87.7059
845.6328,87.4421
846.5970,87.1757
847.5612,86.9081
848.5255,86.6427
849.4897,86.3867
850.4539,86.1516
851.4182,85.9503
852.3824,85.7925
853.3466,85.6805
854.3109,85.6077
855.2751,85.5602
856.2393,85.5225
857.2036,85.4832
858.1678,85.4391
859.1320,85.3951
860.0963,85.3615
861.0605,85.3487
862.0247,85.3634
862.9890,85.4076
863.9532,85.4805
864.9174,85.5816
865.8817,85.7127
866.8459,85.877
867.8101,86.0754
868.7744,86.3032
869.7386,86.5485
870.7028,86.7939
871.6671,87.0202
872.6313,87.2112
873.5955,87.3559
874.5598,87.4513
875.5240,87.5027
876.4882,87.5231
877.4525,87.5311
878.4167,87.5459
879.3809,87.582
880.3452,87.6462
881.3094,87.7367
882.2736,87.8472
883.2379,87.9711
884.2021,88.1039
885.1663,88.2436
886.1306,88.3884
887.0948,88.5367
888.0590,88.6875
889.0233,88.8427
889.9875,89.007
890.9517,89.186
891.9160,89.3827
892.8802,89.5954
893.8444,89.8173
894.8087,90.0395
895.7729,90.2538
896.7371,90.4552
897.7014,90.6423
898.6656,90.816
899.6298,90.9781
900.5941,91.1295
901.5583,91.2695
902.5225,91.3965
903.4868,91.5086
904.4510,91.6047
905.4152,91.6846
906.3795,91.7474
907.3437,91.7907
908.3079,91.8097
909.2722,91.799
910.2364,91.7557
911.2006,91.6817
912.1649,91.5843
913.1291,91.4736
914.0933,91.3598
915.0576,91.2499
916.0218,91.1474
916.9860,91.0536
917.9503,90.9691
918.9145,90.8959
919.8787,90.8373
920.8430,90.7974
921.8072,90.7799
922.7714,90.7861
923.7357,90.8142
924.6999,90.8591
925.6641,90.9148
926.6284,90.9776
927.5926,91.0503
928.5568,91.1444
929.5211,91.2784
930.4853,91.4739
931.4495,91.7496
932.4138,92.1171
933.3780,92.578
934.3422,93.1247
935.3065,93.7405
936.2707,94.402
937.2349,95.0801
938.1992,95.7435
939.1634,96.3642
940.1276,96.9239
941.0919,97.4177
942.0561,97.8536
943.0203,98.2456
943.9846,98.6054
944.9488,98.936
945.9130,99.2313
946.8773,99.4812
947.8415,99.6786
948.8057,99.8243
949.7700,99.9258
950.7342,100.011
951.6984,100.12
952.6627,100.203
953.6269,100.254
954.5911,100.269
955.5554,100.245
956.5196,100.183
957.4838,100.087
958.4481,99.9612
959.4123,99.8092
960.3765,99.6343
961.3408,99.4376
962.3050,99.2192
963.2692,98.9803
964.2335,98.7252
965.1977,98.4634
966.1619,98.2087
967.1262,97.9756
968.0904,97.7745
969.0546,97.6086
970.0189,97.4737
970.9831,97.3615
971.9473,97.2643
972.9116,97.1775
973.8758,97.0997
974.8400,97.0305
975.8043,96.967
976.7685,96.9037
977.7327,96.8325
978.6970,96.7455
979.6612,96.6368
980.6254,96.5027
981.5897,96.341
982.5539,96.1507
983.5181,95.9312
984.4824,95.6842
985.4466,95.4147
986.4108,95.1318
987.3751,94.8485
988.3393,94.5798
989.3035,94.3402
990.2678,94.1411
991.2320,93.988
992.1962,93.8802
993.1605,93.8112
994.1247,93.7714
995.0889,93.7514
996.0532,93.7438
997.0174,93.7435
997.9816,93.7467
998.9459,93.7477
999.9101,93.739
1000.8743,93.7106
1001.8386,93.6513
1002.8028,93.5494
1003.7670,93.3925
1004.7313,93.1686
1005.6955,92.8681
1006.6597,92.4863
1007.6240,92.025
1008.5882,91.4916
1009.5524,90.8949
1010.5167,90.2411
1011.4809,89.5331
1012.4451,88.7718
1013.4094,87.9598
1014.3736,87.103
1015.3378,86.2087
1016.3021,85.2841
1017.2663,84.3352
1018.2305,83.3666
1019.1948,82.3821
1020.1590,81.3811
1021.1232,80.3558
1022.0875,79.2912
1023.0517,78.1733
1024.0160,77.003
1024.9802,75.8059
1025.9445,74.6303
1026.9087,73.5305
1027.8729,72.5436
1028.8372,71.6741
1029.8014,70.8966
1030.7656,70.1741
1031.7299,69.482
1032.6941,68.8232
1033.6583,68.2267
1034.6226,67.7329
1035.5868,67.3755
1036.5510,67.1686
1037.5153,67.103
1038.4795,67.1512
1039.4437,67.2762
1040.4080,67.4423
1041.3722,67.6228
1042.3364,67.8056
1043.3007,67.9927
1044.2649,68.1948
1045.2291,68.424
1046.1934,68.6877
1047.1576,68.9881
1048.1218,69.3247
1049.0861,69.698
1050.0503,70.1089
1051.0145,70.5545
1051.9788,71.0247
1052.9430,71.5037
1053.9072,71.9782
1054.8715,72.4481
1055.8357,72.93
1056.7999,73.4499
1057.7642,74.0237
1058.7284,74.6364
1059.6926,75.2355
1060.6569,75.7453
1061.6211,76.0995
1062.5853,76.2766
1063.5496,76.3158
1064.5138,76.3031
1065.4780,76.33
1066.4423,76.4486
1067.4065,76.6464
1068.3707,76.8561
1069.3350,76.9933
1070.2992,76.9991
1071.2634,76.8646
1072.2277,76.6258
1073.1919,76.3382
1074.1561,76.0489
1075.1204,75.7826
1076.0846,75.5456
1077.0488,75.3383
1078.0131,75.1645
1078.9773,75.0312
1079.9415,74.9426
1080.9058,74.8944
1081.8700,74.8745
1082.8342,74.8697
1083.7985,74.8734
1084.7627,74.8909
1085.7269,74.9385
1086.6912,75.0377
1087.6554,75.2076
1088.6196,75.4565
1089.5839,75.7775
1090.5481,76.1497
1091.5123,76.5453
1092.4766,76.9406
1093.4408,77.3245
1094.4050,77.7011
1095.3693,78.085
1096.3335,78.4922
1097.2977,78.9327
1098.2620,79.4073
1099.2262,79.9101
1100.1904,80.4316
1101.1547,80.9624
1102.1189,81.4942
1103.0831,82.0206
1104.0474,82.5372
1105.0116,83.0423
1105.9758,83.536
1106.9401,84.0201
1107.9043,84.4976
1108.8685,84.9741
1109.8328,85.4592
1110.7970,85.9658
1111.7612,86.5071
1112.7255,87.0918
1113.6897,87.7213
1114.6539,88.3894
1115.6182,89.0869
1116.5824,89.8056
1117.5466,90.5396
1118.5109,91.2844
1119.4751,92.0334
1120.4393,92.7779
1121.4036,93.508
1122.3678,94.2162
1123.3320,94.8988
1124.2963,95.5551
1125.2605,96.1844
1126.2247,96.7841
1127.1890,97.3484
1128.1532,97.8699
1129.1174,98.3405
1130.0817,98.7518
1131.0459,99.0963
1132.0101,99.3678
1132.9744,99.5441
1133.9386,99.59
1134.9028,99.5631
1135.8671,99.4667
1136.8313,99.3004
1137.7955,99.0607
1138.7598,98.7431
1139.7240,98.3471
1140.6882,97.8806
1141.6525,97.3613
1142.6167,96.8151
1143.5809,96.2722
1144.5452,95.763
1145.5094,95.3147
1146.4736,94.949
1147.4379,94.6787
1148.4021,94.5062
1149.3663,94.4218
1150.3306,94.4054
1151.2948,94.4299
1152.2590,94.4676
1153.2233,94.4946
1154.1875,94.4932
1155.1517,94.4518
1156.1160,94.363
1157.0802,94.2223
1158.0444,94.0273
1159.0087,93.7788
1159.9729,93.4809
1160.9371,93.1396
1161.9014,92.7623
1162.8656,92.356
1163.8298,91.9268
1164.7941,91.481
1165.7583,91.0244
1166.7225,90.5628
1167.6868,90.1005
1168.6510,89.6395
1169.6152,89.1795
1170.5795,88.7188
1171.5437,88.2558
1172.5079,87.7898
1173.4722,87.3216
1174.4364,86.8527
1175.4006,86.3848
1176.3649,85.9195
1177.3291,85.4583
1178.2933,85.0027
1179.2576,84.5541
1180.2218,84.1141
1181.1860,83.6837
1182.1503,83.2643
1183.1145,82.8572
1184.0787,82.4639
1185.0430,82.0858
1186.0072,81.7236
1186.9714,81.3777
1187.9357,81.0477
1188.8999,80.7336
1189.8641,80.4348
1190.8284,80.1509
1191.7926,79.8809
1192.7568,79.6244
1193.7211,79.382
1194.6853,79.1564
1195.6495,78.9509
1196.6138,78.7682
1197.5780,78.6075
1198.5422,78.4645
1199.5065,78.3848
1200.4707,78.2535
1201.4349,78.1268
1202.3992,78.0075
1203.3634,77.9006
1204.3276,77.8101
1205.2919,77.737
1206.2561,77.6794
1207.2203,77.6338
1208.1846,77.5973
1209.1488,77.5693
1210.1130,77.5503
1211.0773,77.5415
1212.0415,77.5421
1213.0057,77.549
1213.9700,77.5574
1214.9342,77.5627
1215.8984,77.5626
1216.8627,77.5582
1217.8269,77.5532
1218.7911,77.5514
1219.7554,77.5545
1220.7196,77.5614
1221.6838,77.5693
1222.6481,77.5754
1223.6123,77.579
1224.5765,77.5816
1225.5408,77.586
1226.5050,77.594
1227.4692,77.6048
1228.4335,77.6149
1229.3977,77.6193
1230.3619,77.6151
1231.3262,77.6056
1232.2904,77.6014
1233.2546,77.6184
1234.2189,77.6717
1235.1831,77.769
1236.1473,77.9065
1237.1116,78.0733
1238.0758,78.259
1239.0400,78.4613
1240.0043,78.6873
1240.9685,78.9445
1241.9327,79.2293
1242.8970,79.5201
1243.8612,79.7819
1244.8254,79.9808
1245.7897,80.1003
1246.7539,80.1483
1247.7181,80.1516
1248.6824,80.1411
1249.6466,80.1378
1250.6108,80.1473
1251.5751,80.1621
1252.5393,80.1705
1253.5035,80.1637
1254.4678,80.1399
1255.4320,80.1032
1256.3962,80.0617
1257.3605,80.0248
1258.3247,80.0009
1259.2889,79.9951
1260.2532,80.0075
1261.2174,80.033
1262.1816,80.0638
1263.1459,80.0922
1264.1101,80.1123
1265.0743,80.1198
1266.0386,80.1103
1267.0028,80.0791
1267.9670,80.0214
1268.9313,79.9356
1269.8955,79.8247
1270.8597,79.697
1271.8240,79.5649
1272.7882,79.4413
1273.7524,79.3374
1274.7167,79.2615
1275.6809,79.2185
1276.6451,79.2101
1277.6094,79.2354
1278.5736,79.2902
1279.5378,79.3681
1280.5021,79.462
1281.4663,79.5663
1282.4305,79.6779
1283.3948,79.7978
1284.3590,79.9296
1285.3232,80.0789
1286.2875,80.2507
1287.2517,80.4479
1288.2159,80.669
1289.1802,80.9083
1290.1444,81.1566
1291.1086,81.4046
1292.0729,81.6451
1293.0371,81.8742
1294.0013,82.0909
1294.9656,82.2954
1295.9298,82.4884
1296.8940,82.6709
1297.8583,82.8447
1298.8225,83.0121
1299.7867,83.1757
1300.7510,83.3369
1301.7152,83.4952
1302.6794,83.6497
1303.6437,83.8009
1304.6079,83.9504
1305.5721,84.1004
1306.5364,84.2512
1307.5006,84.4006
1308.4648,84.5451
1309.4291,84.6833
1310.3933,84.817
1311.3575,84.9507
1312.3218,85.0876
1313.2860,85.2263
1314.2502,85.362
1315.2145,85.4901
1316.1787,85.6111
1317.1429,85.7313
1318.1072,85.8587
1319.0714,85.9968
1320.0356,86.1408
1320.9999,86.2805
1321.9641,86.4068
1322.9283,86.5169
1323.8926,86.6143
1324.8568,86.705
1325.8210,86.7935
1326.7853,86.8804
1327.7495,86.9641
1328.7137,87.0429
1329.6780,87.1163
1330.6422,87.1844
1331.6064,87.2436
1332.5707,87.2863
1333.5349,87.301
1334.4991,87.2772
1335.4634,87.2124
1336.4276,87.1176
1337.3918,87.0223
1338.3561,86.9685
1339.3203,86.9855
1340.2845,87.063
1341.2488,87.156
1342.2130,87.2182
1343.1772,87.2267
1344.1415,87.1814
1345.1057,87.0945
1346.0699,86.9821
1347.0342,86.8602
1347.9984,86.7404
1348.9626,86.6271
1349.9269,86.5178
1350.8911,86.4066
1351.8553,86.2896
1352.8196,86.1683
1353.7838,86.0496
1354.7480,85.942
1355.7123,85.8492
1356.6765,85.7672
1357.6407,85.6868
1358.6050,85.5993
1359.5692,85.5024
1360.5334,85.4065
1361.4977,85.3356
1362.4619,85.3089
1363.4261,85.3164
1364.3904,85.3223
1365.3546,85.2947
1366.3188,85.2221
1367.2831,85.1079
1368.2473,84.9604
1369.2115,84.7859
1370.1758,84.5858
1371.1400,84.3585
1372.1042,84.1068
1373.0685,83.8487
1374.0327,83.6197
1374.9969,83.4539
1375.9612,83.3612
1376.9254,83.3301
1377.8896,83.3511
1378.8539,83.428
1379.8181,83.569
1380.7823,83.7722
1381.7466,84.0208
1382.7108,84.2955
1383.6750,84.5911
1384.6393,84.9213
1385.6035,85.3055
1386.5677,85.737
1387.5320,86.153
1388.4962,86.4573
1389.4604,86.5905
1390.4247,86.5647
1391.3889,86.4351
1392.3531,86.2653
1393.3174,86.1155
1394.2816,86.0383
1395.2458,86.0583
1396.2101,86.1468
1397.1743,86.2326
1398.1385,86.2477
1399.1028,86.1633
1400.0670,85.9902
1401.0313,85.7593
1401.9955,85.5038
1402.9597,85.2523
1403.9240,85.0294
1404.8882,84.8558
1405.8524,84.7396
1406.8167,84.6728
1407.7809,84.6418
1408.7451,84.6419
1409.7094,84.677
1410.6736,84.7468
1411.6378,84.8362
1412.6021,84.9203
1413.5663,84.9826
1414.5305,85.026
1415.4948,85.0669
1416.4590,85.1237
1417.4232,85.2124
1418.3875,85.331
1419.3517,85.4325
1420.3159,85.4491
1421.2802,85.3607
1422.2444,85.2056
1423.2086,85.0342
1424.1729,84.8738
1425.1371,84.7245
1426.1013,84.5695
1427.0656,84.3878
1428.0298,84.1638
1428.9940,83.8969
1429.9583,83.6072
1430.9225,83.3281
1431.8867,83.0897
1432.8510,82.9047
1433.8152,82.7647
1434.7794,82.6456
1435.7437,82.5268
1436.7079,82.4
1437.6721,82.2508
1438.6364,82.0613
1439.6006,81.8403
1440.5648,81.62
1441.5291,81.426
1442.4933,81.2611
1443.4575,81.1119
1444.4218,80.9615
1445.3860,80.8018
1446.3502,80.6343
1447.3145,80.4639
1448.2787,80.2884
1449.2429,80.0975
1450.2072,79.8879
1451.1714,79.6775
1452.1356,79.4978
1453.0999,79.3686
1454.0641,79.2799
1455.0283,79.2136
1455.9926,79.235
1456.9568,79.5167
1457.9210,80.0249
1458.8853,80.4398
1459.8495,80.6256
1460.8137,80.6994
1461.7780,80.8142
1462.7422,81.0715
1463.7064,81.521
1464.6707,82.1444
1465.6349,82.8311
1466.5991,83.4471
1467.5634,83.9522
1468.5276,84.4023
1469.4918,84.8725
1470.4561,85.4138
1471.4203,86.0653
1472.3845,86.8646
1473.3488,87.7738
1474.3130,88.6264
1475.2772,89.2742
1476.2415,89.7118
1477.2057,90.0157
1478.1699,90.2632
1479.1342,90.5086
1480.0984,90.7865
1481.0626,91.1104
1482.0269,91.468
1482.9911,91.8254
1483.9553,92.1443
1484.9196,92.3978
1485.8838,92.5744
1486.8480,92.6868
1487.8123,92.7971
1488.7765,93.0082
1489.7407,93.3424
1490.7050,93.6739
1491.6692,93.8831
1492.6334,93.9665
1493.5977,93.974
1494.5619,93.9324
1495.5261,93.8362
1496.4904,93.6866
1497.4546,93.5165
1498.4188,93.3479
1499.3831,93.1648
1500.3473,92.9725
1501.3115,92.825
1502.2758,92.7775
1503.2400,92.8309
1504.2042,92.8934
1505.1685,92.7962
1506.1327,92.4759
1507.0969,92.2256
1508.0612,92.2845
1509.0254,92.4075
1509.9896,92.409
1510.9539,92.3363
1511.9181,92.2689
1512.8823,92.2425
1513.8466,92.2674
1514.8108,92.3584
1515.7750,92.5394
1516.7393,92.8213
1517.7035,93.1898
1518.6677,93.624
1519.6320,94.121
1520.5962,94.6832
1521.5604,95.2757
1522.5247,95.8245
1523.4889,96.2896
1524.4531,96.7066
1525.4174,97.1347
1526.3816,97.5846
1527.3458,98.0079
1528.3101,98.3523
1529.2743,98.6099
1530.2385,98.8127
1531.2028,99.0033
1532.1670,99.2159
1533.1312,99.4599
1534.0955,99.7084
1535.0597,99.931
1536.0239,100.133
1536.9882,100.317
1537.9524,100.411
1538.9166,100.261
1539.8809,99.854
1540.8451,99.5613
1541.8093,99.6816
1542.7736,99.9865
1543.7378,100.227
1544.7020,100.359
1545.6663,100.401
1546.6305,100.368
1547.5947,100.278
1548.5590,100.158
1549.5232,100.028
1550.4874,99.8904
1551.4517,99.7368
1552.4159,99.5838
1553.3801,99.4437
1554.3444,99.36
1555.3086,99.3482
1556.2728,99.3581
1557.2371,99.3224
1558.2013,99.3125
1559.1655,99.383
1560.1298,99.2423
1561.0940,98.7503
1562.0582,98.1013
1563.0225,97.501
1563.9867,97.0393
1564.9509,96.7134
1565.9152,96.4677
1566.8794,96.2254
1567.8436,95.9249
1568.8079,95.5549
1569.7721,95.1527
1570.7363,94.7653
1571.7006,94.4229
1572.6648,94.1274
1573.6290,93.835
1574.5933,93.4651
1575.5575,92.9744
1576.5217,92.4271
1577.4860,91.9157
1578.4502,91.4514
1579.4144,91.0087
1580.3787,90.5767
1581.3429,90.148
1582.3071,89.7104
1583.2714,89.257
1584.2356,88.7921
1585.1998,88.323
1586.1641,87.8526
1587.1283,87.3805
1588.0925,86.908
1589.0568,86.44
1590.0210,85.9822
1590.9852,85.5385
1591.9495,85.1137
1592.9137,84.7189
1593.8779,84.3715
1594.8422,84.0871
1595.8064,83.8677
1596.7706,83.6981
1597.7349,83.5551
1598.6991,83.4202
1599.6633,83.2861
1600.6276,83.1573
1601.5918,83.0445
1602.5560,82.9567
1603.5203,82.8956
1604.4845,82.8584
1605.4487,82.8456
1606.4130,82.8663
1607.3772,82.9358
1608.3414,83.0611
1609.3057,83.2259
1610.2699,83.3948
1611.2341,83.5427
1612.1984,83.6752
1613.1626,83.8168
1614.1268,83.9924
1615.0911,84.2245
1616.0553,84.5217
1617.0195,84.8281
1617.9838,85.0381
1618.9480,85.1192
1619.9122,85.1432
1620.8765,85.2029
1621.8407,85.3514
1622.8049,85.5899
1623.7692,85.8773
1624.7334,86.1596
1625.6976,86.4135
1626.6619,86.6569
1627.6261,86.9122
1628.5903,87.1736
1629.5546,87.4184
1630.5188,87.6427
1631.4830,87.8687
1632.4473,88.1133
1633.4115,88.3611
1634.3757,88.5895
1635.3400,88.8331
1636.3042,89.1274
1637.2684,89.3838
1638.2327,89.5115
1639.1969,89.5424
1640.1611,89.558
1641.1254,89.6126
1642.0896,89.7189
1643.0538,89.8478
1644.0181,89.9306
1644.9823,89.8947
1645.9465,89.7523
1646.9108,89.6237
1647.8750,89.6045
1648.8392,89.7118
1649.8035,89.9414
1650.7677,90.2452
1651.7319,90.4954
1652.6962,90.5795
1653.6604,90.5032
1654.6246,90.2282
1655.5889,89.741
1656.5531,89.1978
1657.5173,88.7564
1658.4816,88.4667
1659.4458,88.2843
1660.4100,88.1216
1661.3743,87.9127
1662.3385,87.6539
1663.3027,87.3801
1664.2670,87.1205
1665.2312,86.8854
1666.1954,86.6603
1667.1597,86.4005
1668.1239,86.0615
1669.0881,85.6631
1670.0524,85.2984
1671.0166,85.0386
1671.9808,84.8748
1672.9451,84.7607
1673.9093,84.6441
1674.8735,84.4684
1675.8378,84.1877
1676.8020,83.7991
1677.7662,83.3593
1678.7305,82.959
1679.6947,82.6697
1680.6589,82.5016
1681.6232,82.3942
1682.5874,82.262
1683.5516,82.0803
1684.5159,81.865
1685.4801,81.5714
1686.4443,81.1721
1687.4086,80.7234
1688.3728,80.3012
1689.3370,79.9521
1690.3013,79.6899
1691.2655,79.5022
1692.2297,79.3529
1693.1940,79.1847
1694.1582,78.936
1695.1224,78.5799
1696.0867,78.1711
1697.0509,77.844
1698.0151,77.7157
1698.9794,77.7532
1699.9436,77.7758
1700.9078,77.6256
1701.8721,77.3011
1702.8363,76.9215
1703.8005,76.6228
1704.7648,76.4894
1705.7290,76.5317
1706.6932,76.691
1707.6575,76.88
1708.6217,77.0413
1709.5859,77.1734
1710.5502,77.3064
1711.5144,77.4654
1712.4786,77.6543
1713.4429,77.8664
1714.4071,78.1196
1715.3713,78.5047
1716.3356,79.1567
1717.2998,80.0385
1718.2640,80.8445
1719.2283,81.3431
1720.1925,81.5876
1721.1567,81.7561
1722.1210,81.9847
1723.0852,82.3194
1724.0494,82.7311
1725.0137,83.154
1725.9779,83.5306
1726.9421,83.841
1727.9064,84.1051
1728.8706,84.3631
1729.8348,84.6564
1730.7991,85.0187
1731.7633,85.4801
1732.7275,86.0532
1733.6918,86.6649
1734.6560,87.1394
1735.6202,87.3701
1736.5845,87.4334
1737.5487,87.4832
1738.5129,87.6257
1739.4772,87.8797
1740.4414,88.1933
1741.4056,88.4888
1742.3699,88.7167
1743.3341,88.8825
1744.2983,89.0261
1745.2626,89.1865
1746.2268,89.3871
1747.1910,89.6493
1748.1553,90.0078
1749.1195,90.4874
1750.0837,91.0358
1751.0480,91.5219
1752.0122,91.8481
1752.9764,92.0254
1753.9407,92.1331
1754.9049,92.2469
1755.8691,92.404
1756.8334,92.6033
1757.7976,92.826
1758.7618,93.0595
1759.7261,93.3075
1760.6903,93.5786
1761.6545,93.8666
1762.6188,94.1438
1763.5830,94.3833
1764.5472,94.584
1765.5115,94.7679
1766.4757,94.9561
1767.4399,95.1497
1768.4042,95.3309
1769.3684,95.4846
1770.3326,95.6265
1771.2969,95.8102
1772.2611,96.0717
1773.2253,96.365
1774.1896,96.6027
1775.1538,96.755
1776.1180,96.8631
1777.0823,96.9841
1778.0465,97.1481
1779.0107,97.3518
1779.9750,97.5742
1780.9392,97.7955
1781.9034,98.0061
1782.8677,98.2026
1783.8319,98.3769
1784.7961,98.5138
1785.7604,98.6034
1786.7246,98.6557
1787.6888,98.6974
1788.6531,98.7508
1789.6173,98.8151
1790.5815,98.8738
1791.5458,98.9206
1792.5100,98.96
1793.4742,98.9795
1794.4385,98.9639
1795.4027,98.9317
1796.3669,98.9213
1797.3312,98.9556
1798.2954,99.0293
1799.2596,99.1222
1800.2239,99.2151
1801.1881,99.2954
1802.1523,99.3545
1803.1166,99.39
1804.0808,99.4069
1805.0450,99.4134
1806.0093,99.4146
1806.9735,99.4115
1807.9377,99.4049
1808.9020,99.4019
1809.8662,99.4153
1810.8304,99.4537
1811.7947,99.5116
1812.7589,99.5738
1813.7231,99.6288
1814.6874,99.6728
1815.6516,99.7059
1816.6158,99.7271
1817.5801,99.7356
1818.5443,99.7331
1819.5085,99.7258
1820.4728,99.7224
1821.4370,99.7284
1822.4012,99.7413
1823.3655,99.752
1824.3297,99.7493
1825.2939,99.7252
1826.2582,99.6804
1827.2224,99.6272
1828.1866,99.5875
1829.1509,99.5832
1830.1151,99.6151
1831.0793,99.6532
1832.0436,99.6617
1833.0078,99.6335
1833.9720,99.5874
1834.9363,99.5434
1835.9005,99.5089
1836.8647,99.4824
1837.8290,99.4634
1838.7932,99.4585
1839.7574,99.479
1840.7217,99.5268
1841.6859,99.5824
1842.6501,99.6135
1843.6144,99.6021
1844.5786,99.5552
1845.5428,99.4869
1846.5071,99.4205
1847.4713,99.3831
1848.4355,99.3757
1849.3998,99.4023
1850.3640,99.4485
1851.3282,99.493
1852.2925,99.5216
1853.2567,99.5323
1854.2209,99.5311
1855.1852,99.5243
1856.1494,99.5157
1857.1136,99.5072
1858.0779,99.5022
1859.0421,99.5046
1860.0063,99.5142
1860.9706,99.5239
1861.9348,99.5224
1862.8990,99.5014
1863.8633,99.4607
1864.8275,99.4056
1865.7917,99.3446
1866.7560,99.2972
1867.7202,99.2974
1868.6844,99.3673
1869.6487,99.4788
1870.6129,99.5729
1871.5771,99.6185
1872.5414,99.6268
1873.5056,99.6238
1874.4698,99.625
1875.4341,99.6321
1876.3983,99.6399
1877.3625,99.6445
1878.3268,99.6452
1879.2910,99.6437
1880.2552,99.6412
1881.2195,99.6365
1882.1837,99.6279
1883.1479,99.6147
1884.1122,99.5996
1885.0764,99.5871
1886.0406,99.5808
1887.0049,99.5818
1887.9691,99.5883
1888.9333,99.5969
1889.8976,99.6018
1890.8618,99.5959
1891.8260,99.5779
1892.7903,99.5546
1893.7545,99.5375
1894.7188,99.5359
1895.6830,99.5516
1896.6472,99.5776
1897.6115,99.6023
1898.5757,99.6165
1899.5399,99.618
1900.5042,99.6104
1901.4684,99.5995
1902.4326,99.5884
1903.3969,99.5762
1904.3611,99.5587
1905.3253,99.5326
1906.2896,99.4992
1907.2538,99.4662
1908.2180,99.445
1909.1823,99.4444
1910.1465,99.4635
1911.1107,99.4918
1912.0750,99.5189
1913.0392,99.5424
1914.0034,99.566
1914.9677,99.5918
1915.9319,99.615
1916.8961,99.6262
1917.8604,99.6153
1918.8246,99.5774
1919.7888,99.519
1920.7531,99.459
1921.7173,99.4207
1922.6815,99.4189
1923.6458,99.4516
1924.6100,99.5013
1925.5742,99.547
1926.5385,99.5769
1927.5027,99.5909
1928.4669,99.5945
1929.4312,99.5933
1930.3954,99.5906
1931.3596,99.5878
1932.3239,99.5864
1933.2881,99.5882
1934.2523,99.5939
1935.2166,99.6018
1936.1808,99.6081
1937.1450,99.6088
1938.1093,99.6024
1939.0735,99.5886
1940.0377,99.5685
1941.0020,99.546
1941.9662,99.529
1942.9304,99.5247
1943.8947,99.5341
1944.8589,99.553
1945.8231,99.5774
1946.7874,99.6057
1947.7516,99.6358
1948.7158,99.6636
1949.6801,99.6842
1950.6443,99.695
1951.6085,99.6977
1952.5728,99.6969
1953.5370,99.698
1954.5012,99.7037
1955.4655,99.7137
1956.4297,99.7251
1957.3939,99.7354
1958.3582,99.7437
1959.3224,99.7503
1960.2866,99.7555
1961.2509,99.7577
1962.2151,99.7544
1963.1793,99.7438
1964.1436,99.7276
1965.1078,99.7117
1966.0720,99.7054
1967.0363,99.7162
1968.0005,99.7435
1968.9647,99.7789
1969.9290,99.8114
1970.8932,99.8343
1971.8574,99.8464
1972.8217,99.8507
1973.7859,99.8508
1974.7501,99.8505
1975.7144,99.8513
1976.6786,99.8533
1977.6428,99.8562
1978.6071,99.8597
1979.5713,99.8635
1980.5355,99.8674
1981.4998,99.8704
1982.4640,99.871
1983.4282,99.868
1984.3925,99.8608
1985.3567,99.8497
1986.3209,99.8361
1987.2852,99.822
1988.2494,99.8091
1989.2136,99.7992
1990.1779,99.7947
1991.1421,99.798
1992.1063,99.81
1993.0706,99.8273
1994.0348,99.8444
1994.9990,99.8566
1995.9633,99.8624
1996.9275,99.8632
1997.8917,99.8614
1998.8560,99.8602
1999.8202,99.8617
2000.7844,99.866
2001.7487,99.8712
2002.7129,99.8744
2003.6771,99.8736
2004.6414,99.8681
2005.6056,99.8596
2006.5698,99.8509
2007.5341,99.8446
2008.4983,99.842
2009.4625,99.8425
2010.4268,99.8437
2011.3910,99.8421
2012.3552,99.835
2013.3195,99.8216
2014.2837,99.8038
2015.2479,99.7863
2016.2122,99.7748
2017.1764,99.7733
2018.1406,99.7811
2019.1049,99.7937
2020.0691,99.8056
2021.0333,99.8136
2021.9976,99.8176
2022.9618,99.8195
2023.9260,99.8213
2024.8903,99.8241
2025.8545,99.8274
2026.8187,99.8299
2027.7830,99.8306
2028.7472,99.8292
2029.7114,99.8263
2030.6757,99.823
2031.6399,99.8204
2032.6041,99.8195
2033.5684,99.8209
2034.5326,99.8237
2035.4968,99.8259
2036.4611,99.8256
2037.4253,99.8212
2038.3895,99.813
2039.3538,99.8039
2040.3180,99.7976
2041.2822,99.7972
2042.2465,99.8034
2043.2107,99.8139
2044.1749,99.8252
2045.1392,99.8343
2046.1034,99.8398
2047.0676,99.8417
2048.0320,99.8408
2048.9961,99.8384
2049.9604,99.8354
2050.9246,99.8328
2051.8889,99.8313
2052.8530,99.8309
2053.8174,99.8307
2054.7815,99.8303
2055.7458,99.8289
2056.7100,99.8271
2057.6743,99.8254
2058.6384,99.8236
2059.6028,99.8206
2060.5669,99.8146
2061.5313,99.8051
2062.4954,99.7936
2063.4597,99.7841
2064.4238,99.7809
2065.3882,99.7865
2066.3523,99.7994
2067.3167,99.8153
2068.2808,99.8292
2069.2451,99.8384
2070.2092,99.8429
2071.1736,99.8447
2072.1377,99.8463
2073.1021,99.8491
2074.0662,99.8526
2075.0305,99.8559
2075.9946,99.858
2076.9590,99.8585
2077.9231,99.8579
2078.8875,99.8569
2079.8516,99.8559
2080.8159,99.8554
2081.7800,99.8554
2082.7444,99.8563
2083.7085,99.8581
2084.6729,99.8604
2085.6370,99.8624
2086.6013,99.8629
2087.5654,99.8612
2088.5298,99.8574
2089.4939,99.8531
2090.4583,99.8501
2091.4224,99.85
2092.3867,99.8532
2093.3508,99.8589
2094.3152,99.8659
2095.2793,99.8726
2096.2437,99.8783
2097.2078,99.8825
2098.1721,99.8855
2099.1362,99.8871
2100.1006,99.8864
2101.0647,99.8862
2102.0291,99.8851
2102.9932,99.8833
2103.9575,99.8811
2104.9216,99.8784
2105.8860,99.8754
2106.8501,99.8724
2107.8145,99.8697
2108.7786,99.8677
2109.7429,99.866
2110.7070,99.8643
2111.6714,99.8623
2112.6355,99.8608
2113.5999,99.8609
2114.5640,99.864
2115.5283,99.87
2116.4924,99.8775
2117.4568,99.8838
2118.4209,99.8868
2119.3853,99.8858
2120.3494,99.882
2121.3137,99.8775
2122.2778,99.8741
2123.2422,99.8725
2124.2063,99.872
2125.1707,99.8719
2126.1348,99.872
2127.0991,99.8733
2128.0632,99.8769
2129.0276,99.8827
2129.9917,99.8895
2130.9561,99.8944
2131.9202,99.8949
2132.8845,99.8903
2133.8486,99.8823
2134.8130,99.8747
2135.7771,99.8715
2136.7415,99.875
2137.7056,99.8847
2138.6699,99.8975
2139.6340,99.9095
2140.5984,99.9177
2141.5625,99.9213
2142.5269,99.9216
2143.4910,99.9212
2144.4553,99.9222
2145.4194,99.9259
2146.3838,99.9318
2147.3479,99.9385
2148.3123,99.9442
2149.2764,99.9468
2150.2407,99.9455
2151.2048,99.9405
2152.1692,99.9335
2153.1333,99.9273
2154.0977,99.9249
2155.0618,99.9277
2156.0261,99.9352
2156.9902,99.9447
2157.9546,99.9527
2158.9187,99.9567
2159.8831,99.9562
2160.8472,99.953
2161.8115,99.9498
2162.7756,99.9487
2163.7400,99.9499
2164.7041,99.952
2165.6685,99.9531
2166.6326,99.9521
2167.5969,99.9488
2168.5610,99.9444
2169.5254,99.9402
2170.4895,99.9372
2171.4539,99.9357
2172.4180,99.9354
2173.3823,99.9358
2174.3464,99.9364
2175.3108,99.9368
2176.2749,99.937
2177.2393,99.937
2178.2034,99.937
2179.1677,99.9364
2180.1318,99.9348
2181.0962,99.9313
2182.0603,99.9257
2183.0247,99.919
2183.9888,99.9133
2184.9531,99.911
2185.9172,99.9137
2186.8816,99.9211
2187.8457,99.9306
2188.8101,99.9385
2189.7742,99.9415
2190.7385,99.9383
2191.7026,99.9303
2192.6670,99.9205
2193.6311,99.9128
2194.5955,99.9093
2195.5596,99.9101
2196.5239,99.9132
2197.4880,99.9158
2198.4524,99.9158
2199.4165,99.9128
2200.3809,99.9082
2201.3450,99.9039
2202.3093,99.9013
2203.2734,99.9003
2204.2378,99.8999
2205.2019,99.8987
2206.1663,99.8963
2207.1304,99.8935
2208.0947,99.8916
2209.0588,99.8916
2210.0232,99.8928
2210.9873,99.8934
2211.9517,99.8916
2212.9158,99.8867
2213.8801,99.8797
2214.8442,99.8727
2215.8086,99.8671
2216.7727,99.8628
2217.7371,99.8584
2218.7012,99.8526
2219.6655,99.845
2220.6296,99.8371
2221.5940,99.831
2222.5581,99.8282
2223.5225,99.828
2224.4866,99.8284
2225.4509,99.8266
2226.4150,99.8208
2227.3794,99.8114
2228.3435,99.7996
2229.3079,99.7871
2230.2720,99.7752
2231.2363,99.7647
2232.2004,99.756
2233.1648,99.7494
2234.1289,99.7449
2235.0933,99.7425
2236.0574,99.7411
2237.0217,99.7395
2237.9858,99.7359
2238.9502,99.7294
2239.9143,99.7196
2240.8787,99.7069
2241.8428,99.6924
2242.8071,99.6772
2243.7712,99.6624
2244.7356,99.6486
2245.6997,99.6362
2246.6641,99.6249
2247.6282,99.6138
2248.5925,99.6021
2249.5566,99.5885
2250.5210,99.5723
2251.4851,99.5532
2252.4495,99.5317
2253.4136,99.5089
2254.3779,99.4861
2255.3420,99.4651
2256.3064,99.4469
2257.2705,99.4316
2258.2349,99.4184
2259.1990,99.4055
2260.1633,99.391
2261.1274,99.3738
2262.0918,99.3543
2263.0559,99.3344
2264.0203,99.3168
2264.9844,99.3033
2265.9487,99.2941
2266.9128,99.2875
2267.8772,99.281
2268.8413,99.2728
2269.8057,99.2629
2270.7698,99.253
2271.7341,99.2455
2272.6982,99.242
2273.6626,99.2425
2274.6267,99.2462
2275.5911,99.2521
2276.5552,99.26
2277.5195,99.2703
2278.4836,99.2833
2279.4480,99.2982
2280.4121,99.3125
2281.3765,99.3221
2282.3406,99.3225
2283.3049,99.31
2284.2690,99.2824
2285.2334,99.2409
2286.1975,99.1895
2287.1619,99.1342
2288.1260,99.0806
2289.0903,99.0312
2290.0544,98.9852
2291.0188,98.9399
2291.9829,98.8938
2292.9473,98.8489
2293.9114,98.8099
2294.8757,98.7817
2295.8398,98.7662
2296.8042,98.7625
2297.7683,98.7686
2298.7327,98.7848
2299.6968,98.8144
2300.6611,98.8616
2301.6252,98.9257
2302.5896,98.9986
2303.5537,99.0654
2304.5181,99.1106
2305.4822,99.1267
2306.4465,99.12
2307.4106,99.1104
2308.3750,99.1231
2309.3391,99.1764
2310.3035,99.2715
2311.2676,99.392
2312.2319,99.5121
2313.1960,99.6112
2314.1604,99.6843
2315.1245,99.7433
2316.0889,99.8086
2317.0530,99.8968
2318.0173,100.01
2318.9814,100.128
2319.9458,100.214
2320.9099,100.218
2321.8743,100.104
2322.8384,99.8648
2323.8027,99.5398
2324.7668,99.2021
2325.7312,98.9333
2326.6953,98.7917
2327.6597,98.7887
2328.6238,98.8823
2329.5881,98.9912
2330.5522,99.0296
2331.5166,98.9489
2332.4807,98.7605
2333.4451,98.5237
2334.4092,98.3085
2335.3735,98.1581
2336.3376,98.072
2337.3020,98.0123
2338.2661,97.9287
2339.2305,97.7911
2340.1946,97.6182
2341.1589,97.495
2342.1230,97.5543
2343.0874,97.8778
2344.0515,98.343
2345.0159,98.653
2345.9800,98.6181
2346.9443,98.3325
2347.9084,98.0257
2348.8728,97.8882
2349.8369,97.9825
2350.8013,98.2266
2351.7654,98.4416
2352.7297,98.4573
2353.6938,98.2339
2354.6582,97.8777
2355.6223,97.5088
2356.5867,97.1573
2357.5508,96.8166
2358.5151,96.5277
2359.4792,96.3656
2360.4436,96.3611
2361.4077,96.4795
2362.3721,96.6772
2363.3362,96.9476
2364.3005,97.3046
2365.2646,97.7436
2366.2290,98.2297
2367.1931,98.7192
2368.1575,99.181
2369.1216,99.6001
2370.0859,99.9691
2371.0500,100.281
2372.0144,100.527
2372.9785,100.697
2373.9429,100.78
2374.9070,100.77
2375.8713,100.668
2376.8354,100.49
2377.7998,100.259
2378.7639,100.007
2379.7283,99.7645
2380.6924,99.5553
2381.6567,99.3951
2382.6208,99.2893
2383.5852,99.2345
2384.5493,99.2204
2385.5137,99.2327
2386.4778,99.2571
2387.4421,99.2819
2388.4063,99.3003
2389.3706,99.3107
2390.3347,99.3153
2391.2991,99.3177
2392.2632,99.3208
2393.2275,99.3254
2394.1917,99.331
2395.1560,99.3363
2396.1201,99.3412
2397.0845,99.3464
2398.0486,99.3526
2399.0129,99.3599
2399.9771,99.3674
2400.9414,99.3728
2401.9055,99.3744
2402.8699,99.3722
2403.8340,99.3681
2404.7983,99.3653
2405.7625,99.3662
2406.7268,99.3712
2407.6909,99.3784
2408.6553,99.3847
2409.6194,99.3879
2410.5837,99.3879
2411.5479,99.3864
2412.5122,99.3858
2413.4763,99.3876
2414.4407,99.3915
2415.4048,99.3966
2416.3691,99.4018
2417.3333,99.4073
2418.2976,99.4136
2419.2617,99.4206
2420.2261,99.4274
2421.1902,99.4326
2422.1545,99.435
2423.1187,99.4353
2424.0830,99.4352
2425.0471,99.4368
2426.0115,99.4414
2426.9756,99.4485
2427.9399,99.4567
2428.9041,99.464
2429.8684,99.4695
2430.8325,99.4731
2431.7969,99.4752
2432.7610,99.4761
2433.7253,99.4758
2434.6895,99.4741
2435.6538,99.4714
2436.6179,99.4687
2437.5823,99.4677
2438.5464,99.4698
2439.5107,99.4756
2440.4749,99.484
2441.4392,99.493
2442.4033,99.5005
2443.3677,99.5051
2444.3318,99.5064
2445.2961,99.5053
2446.2603,99.5024
2447.2246,99.4986
2448.1887,99.494
2449.1531,99.4888
2450.1172,99.484
2451.0815,99.481
2452.0457,99.4815
2453.0100,99.4864
2453.9741,99.4952
2454.9385,99.5055
2455.9026,99.5144
2456.8669,99.5191
2457.8311,99.5188
2458.7954,99.5146
2459.7595,99.5091
2460.7239,99.5048
2461.6880,99.503
2462.6523,99.5034
2463.6165,99.5045
2464.5808,99.5049
2465.5449,99.5036
2466.5093,99.5009
2467.4734,99.4976
2468.4377,99.4947
2469.4019,99.4932
2470.3662,99.4934
2471.3303,99.4955
2472.2947,99.4994
2473.2588,99.5044
2474.2231,99.5093
2475.1873,99.5133
2476.1516,99.516
2477.1157,99.5174
2478.0801,99.5182
2479.0442,99.5188
2480.0085,99.5194
2480.9727,99.5198
2481.9370,99.5199
2482.9011,99.5198
2483.8655,99.5203
2484.8296,99.5217
2485.7939,99.5242
2486.7581,99.5272
2487.7224,99.5299
2488.6865,99.5313
2489.6509,99.5309
2490.6150,99.5286
2491.5793,99.5247
2492.5435,99.5203
2493.5078,99.5164
2494.4719,99.5146
2495.4363,99.5158
2496.4004,99.5202
2497.3647,99.5267
2498.3289,99.5333
2499.2932,99.5377
2500.2573,99.5386
2501.2217,99.5361
2502.1858,99.5318
2503.1501,99.5276
2504.1143,99.5252
2505.0786,99.5246
2506.0427,99.5246
2507.0071,99.5238
2507.9712,99.521
2508.9355,99.5165
2509.8997,99.5111
2510.8640,99.5063
2511.8281,99.5028
2512.7925,99.501
2513.7566,99.5008
2514.7209,99.5023
2515.6851,99.5051
2516.6494,99.5088
2517.6135,99.5122
2518.5779,99.5139
2519.5420,99.5128
2520.5063,99.509
2521.4705,99.504
2522.4348,99.4995
2523.3989,99.4964
2524.3633,99.4947
2525.3274,99.4931
2526.2917,99.4903
2527.2559,99.4864
2528.2202,99.4825
2529.1843,99.4805
2530.1487,99.4812
2531.1128,99.4836
2532.0771,99.4857
2533.0413,99.4852
2534.0056,99.4813
2534.9697,99.4751
2535.9341,99.4689
2536.8982,99.4654
2537.8625,99.4655
2538.8267,99.4685
2539.7910,99.4724
2540.7551,99.4749
2541.7195,99.4747
2542.6836,99.4723
2543.6479,99.4694
2544.6121,99.4679
2545.5764,99.469
2546.5405,99.4724
2547.5049,99.4763
2548.4690,99.4786
2549.4333,99.4785
2550.3975,99.4764
2551.3618,99.4744
2552.3259,99.4747
2553.2903,99.4782
2554.2544,99.4843
2555.2188,99.4909
2556.1829,99.4967
2557.1472,99.5016
2558.1113,99.5067
2559.0757,99.5129
2560.0398,99.52
2561.0042,99.5257
2561.9683,99.5278
2562.9326,99.5258
2563.8967,99.5217
2564.8611,99.5194
2565.8252,99.5222
2566.7896,99.5306
2567.7537,99.5417
2568.7180,99.5513
2569.6821,99.5564
2570.6465,99.5567
2571.6106,99.5546
2572.5750,99.5528
2573.5391,99.5525
2574.5034,99.5529
2575.4675,99.5524
2576.4319,99.5507
2577.3960,99.5494
2578.3604,99.5511
2579.3245,99.5578
2580.2888,99.5689
2581.2529,99.5814
2582.2173,99.5913
2583.1814,99.596
2584.1458,99.5956
2585.1099,99.5927
2586.0742,99.5907
2587.0383,99.5915
2588.0027,99.5949
2588.9668,99.5986
2589.9312,99.6003
2590.8953,99.5989
2591.8596,99.5955
2592.8237,99.5922
2593.7881,99.5908
2594.7522,99.5918
2595.7166,99.594
2596.6807,99.5961
2597.6450,99.5978
2598.6091,99.5996
2599.5735,99.6023
2600.5376,99.6058
2601.5020,99.6084
2602.4661,99.6085
2603.4304,99.6055
2604.3945,99.6008
2605.3589,99.5978
2606.3230,99.5993
2607.2874,99.6057
2608.2515,99.6146
2609.2158,99.6223
2610.1799,99.6259
2611.1443,99.6256
2612.1084,99.624
2613.0728,99.6241
2614.0369,99.6274
2615.0012,99.6328
2615.9653,99.6376
2616.9297,99.6399
2617.8938,99.6398
2618.8582,99.6395
2619.8223,99.6412
2620.7866,99.6457
2621.7507,99.6514
2622.7151,99.6558
2623.6792,99.6572
2624.6436,99.6565
2625.6077,99.6564
2626.5720,99.6597
2627.5361,99.667
2628.5005,99.6766
2629.4646,99.6848
2630.4290,99.6889
2631.3931,99.6887
2632.3574,99.6862
2633.3215,99.6847
2634.2859,99.6861
2635.2500,99.6903
2636.2144,99.6953
2637.1785,99.6995
2638.1428,99.7023
2639.1069,99.7056
2640.0713,99.7118
2641.0354,99.7222
2641.9998,99.7364
2642.9639,99.7511
2643.9282,99.7626
2644.8923,99.7682
2645.8567,99.7673
2646.8208,99.7621
2647.7852,99.7556
2648.7493,99.7508
2649.7136,99.7493
2650.6777,99.7507
2651.6421,99.7544
2652.6062,99.7594
2653.5706,99.7654
2654.5347,99.7723
2655.4990,99.7797
2656.4631,99.7869
2657.4275,99.7931
2658.3916,99.7977
2659.3560,99.8011
2660.3201,99.8046
2661.2844,99.8098
2662.2485,99.8182
2663.2129,99.8304
2664.1770,99.8459
2665.1414,99.8632
2666.1055,99.8802
2667.0698,99.8947
2668.0339,99.9056
2668.9983,99.913
2669.9624,99.9185
2670.9268,99.9242
2671.8909,99.9323
2672.8552,99.944
2673.8193,99.9594
2674.7837,99.9774
2675.7478,99.9954
2676.7122,100.011
2677.6763,100.021
2678.6406,100.025
2679.6047,100.023
2680.5691,100.018
2681.5332,100.014
2682.4976,100.012
2683.4617,100.013
2684.4260,100.017
2685.3901,100.021
2686.3545,100.025
2687.3186,100.03
2688.2830,100.034
2689.2471,100.039
2690.2114,100.044
2691.1755,100.049
2692.1399,100.053
2693.1040,100.057
2694.0684,100.061
2695.0325,100.064
2695.9968,100.067
2696.9609,100.069
2697.9253,100.072
2698.8894,100.075
2699.8538,100.078
2700.8179,100.08
2701.7822,100.081
2702.7463,100.08
2703.7107,100.076
2704.6748,100.07
2705.6392,100.063
2706.6033,100.057
2707.5676,100.051
2708.5317,100.047
2709.4961,100.044
2710.4602,100.042
2711.4246,100.04
2712.3887,100.036
2713.3530,100.028
2714.3171,100.016
2715.2815,100.002
2716.2456,99.9868
2717.2100,99.9723
2718.1741,99.9602
2719.1384,99.9514
2720.1025,99.9453
2721.0669,99.9404
2722.0310,99.934
2722.9954,99.9239
2723.9595,99.909
2724.9238,99.8898
2725.8879,99.8692
2726.8523,99.8505
2727.8164,99.8365
2728.7808,99.8284
2729.7449,99.8253
2730.7092,99.826
2731.6733,99.8293
2732.6377,99.8343
2733.6018,99.8403
2734.5662,99.8459
2735.5303,99.8492
2736.4946,99.849
2737.4587,99.846
2738.4231,99.8432
2739.3872,99.8448
2740.3516,99.8545
2741.3157,99.8735
2742.2800,99.9001
2743.2441,99.931
2744.2085,99.9624
2745.1726,99.9911
2746.1370,100.015
2747.1011,100.032
2748.0654,100.042
2749.0295,100.044
2749.9939,100.04
2750.9580,100.034
2751.9224,100.031
2752.8865,100.034
2753.8508,100.041
2754.8149,100.049
2755.7793,100.053
2756.7434,100.05
2757.7078,100.038
2758.6719,100.023
2759.6362,100.01
2760.6003,100.001
2761.5647,99.9983
2762.5288,99.9983
2763.4932,99.9969
2764.4573,99.9907
2765.4216,99.9791
2766.3857,99.9648
2767.3501,99.9516
2768.3142,99.9428
2769.2786,99.9387
2770.2427,99.9363
2771.2070,99.9302
2772.1711,99.9161
2773.1355,99.8922
2774.0996,99.8613
2775.0640,99.8287
2776.0281,99.7997
2776.9924,99.7758
2777.9565,99.7551
2778.9209,99.7335
2779.8850,99.7071
2780.8494,99.675
2781.8135,99.6395
2782.7778,99.6049
2783.7419,99.5749
2784.7063,99.5508
2785.6704,99.5308
2786.6348,99.5115
2787.5989,99.4894
2788.5632,99.4629
2789.5273,99.4322
2790.4917,99.3992
2791.4558,99.3665
2792.4202,99.3357
2793.3843,99.3076
2794.3486,99.2813
2795.3127,99.2549
2796.2771,99.2259
2797.2412,99.1925
2798.2056,99.1536
2799.1697,99.1096
2800.1340,99.0621
2801.0981,99.0131
2802.0625,98.9644
2803.0266,98.9168
2803.9910,98.8702
2804.9551,98.8239
2805.9194,98.7769
2806.8835,98.7281
2807.8479,98.676
2808.8120,98.6187
2809.7764,98.5543
2810.7405,98.4814
2811.7048,98.4006
2812.6689,98.3141
2813.6333,98.2253
2814.5974,98.1368
2815.5618,98.0492
2816.5259,97.9603
2817.4902,97.8663
2818.4543,97.7635
2819.4187,97.6499
2820.3828,97.5257
2821.3472,97.3923
2822.3113,97.251
2823.2756,97.1025
2824.2397,96.9468
2825.2041,96.7842
2826.1682,96.6154
2827.1326,96.4408
2828.0967,96.2597
2829.0610,96.0694
2830.0251,95.8668
2830.9895,95.6492
2831.9536,95.4162
2832.9180,95.1695
2833.8821,94.9114
2834.8464,94.643
2835.8105,94.3633
2836.7749,94.07
2837.7390,93.7609
2838.7034,93.4354
2839.6675,93.0946
2840.6318,92.7403
2841.5959,92.3738
2842.5603,91.9956
2843.5244,91.6064
2844.4888,91.2089
2845.4529,90.8094
2846.4172,90.4174
2847.3813,90.0436
2848.3457,89.6969
2849.3098,89.3814
2850.2742,89.0963
2851.2383,88.8368
2852.2026,88.5977
2853.1667,88.3755
2854.1311,88.1689
2855.0952,87.9783
2856.0596,87.8026
2857.0237,87.6383
2857.9880,87.4792
2858.9521,87.3181
2859.9165,87.1487
2860.8806,86.968
2861.8450,86.7764
2862.8091,86.5776
2863.7734,86.3772
2864.7375,86.181
2865.7019,85.9947
2866.6660,85.8228
2867.6304,85.6699
2868.5945,85.5407
2869.5588,85.4401
2870.5229,85.3717
2871.4873,85.3362
2872.4514,85.3297
2873.4158,85.3442
2874.3799,85.3698
2875.3442,85.3978
2876.3083,85.4221
2877.2727,85.4397
2878.2368,85.4493
2879.2012,85.4504
2880.1653,85.4429
2881.1296,85.4285
2882.0938,85.4113
2883.0581,85.3975
2884.0222,85.3925
2884.9866,85.3974
2885.9507,85.4075
2886.9150,85.4127
2887.8792,85.4014
2888.8435,85.3659
2889.8076,85.307
2890.7720,85.2339
2891.7361,85.1593
2892.7004,85.091
2893.6646,85.0252
2894.6289,84.9445
2895.5930,84.8264
2896.5574,84.6557
2897.5215,84.4367
2898.4858,84.1949
2899.4500,83.9677
2900.4143,83.7875
2901.3784,83.6666
2902.3428,83.5921
2903.3069,83.5341
2904.2712,83.46
2905.2354,83.3479
2906.1997,83.1912
2907.1638,82.9956
2908.1282,82.772
2909.0923,82.531
2910.0566,82.2809
2911.0208,82.0282
2911.9851,81.778
2912.9492,81.5336
2913.9136,81.2964
2914.8777,81.0657
2915.8420,80.8408
2916.8062,80.623
2917.7705,80.4162
2918.7346,80.2262
2919.6990,80.0587
2920.6631,79.9177
2921.6274,79.8053
2922.5916,79.7217
2923.5559,79.6663
2924.5200,79.639
2925.4844,79.6399
2926.4485,79.67
2927.4128,79.7302
2928.3770,79.8203
2929.3413,79.9389
2930.3054,80.0833
2931.2698,80.2504
2932.2339,80.4374
2933.1982,80.6426
2934.1624,80.8646
2935.1267,81.1013
2936.0908,81.3486
2937.0552,81.6007
2938.0193,81.8512
2938.9836,82.0943
2939.9478,82.3265
2940.9121,82.5474
2941.8762,82.7578
2942.8406,82.958
2943.8047,83.145
2944.7690,83.3118
2945.7332,83.4494
2946.6975,83.5498
2947.6616,83.61
2948.6260,83.6329
2949.5901,83.6266
2950.5544,83.6005
2951.5186,83.5627
2952.4829,83.5187
2953.4470,83.4719
2954.4114,83.4259
2955.3755,83.3854
2956.3398,83.3561
2957.3040,83.344
2958.2683,83.354
2959.2324,83.3882
2960.1968,83.4461
2961.1609,83.5246
2962.1252,83.6187
2963.0894,83.724
2964.0537,83.838
2965.0178,83.961
2965.9822,84.0963
2966.9463,84.2483
2967.9106,84.422
2968.8748,84.6213
2969.8391,84.8494
2970.8032,85.1077
2971.7676,85.3956
2972.7317,85.7096
2973.6960,86.0436
2974.6602,86.3902
2975.6245,86.7422
2976.5886,87.0948
2977.5530,87.4454
2978.5171,87.7937
2979.4814,88.1394
2980.4456,88.48
2981.4099,88.8089
2982.3740,89.1151
2983.3384,89.3871
2984.3025,89.6209
2985.2668,89.8279
2986.2310,90.0371
2987.1953,90.2878
2988.1594,90.6123
2989.1238,91.0198
2990.0879,91.4883
2991.0522,91.9732
2992.0164,92.4261
2992.9807,92.8158
2993.9448,93.1378
2994.9092,93.4106
2995.8733,93.6612
2996.8376,93.9103
2997.8018,94.1658
2998.7661,94.4244
2999.7302,94.6793
3000.6946,94.926
3001.6587,95.1652
3002.6230,95.4008
3003.5872,95.6372
3004.5515,95.8761
3005.5156,96.1157
3006.4800,96.3505
3007.4441,96.5734
3008.4084,96.7787
3009.3726,96.9651
3010.3369,97.137
3011.3010,97.3026
3012.2654,97.4698
3013.2295,97.6418
3014.1938,97.8157
3015.1580,97.9841
3016.1223,98.1401
3017.0864,98.2801
3018.0508,98.4046
3019.0149,98.5171
3019.9792,98.6214
3020.9434,98.7205
3021.9077,98.8168
3022.8718,98.9116
3023.8362,99.0057
3024.8003,99.0977
3025.7646,99.184
3026.7288,99.2604
3027.6931,99.3242
3028.6572,99.3772
3029.6216,99.4253
3030.5857,99.4762
3031.5500,99.5359
3032.5142,99.6054
3033.4785,99.6807
3034.4426,99.7561
3035.4070,99.8268
3036.3711,99.8904
3037.3354,99.9469
3038.2996,99.9964
3039.2639,100.038
3040.2280,100.07
3041.1924,100.092
3042.1565,100.103
3043.1208,100.075
3044.0850,100.035
3045.0493,99.9957
3046.0134,99.9596
3046.9778,99.9301
3047.9419,99.9071
3048.9063,99.8875
3049.8704,99.8659
3050.8347,99.8375
3051.7988,99.8
3052.7632,99.755
3053.7273,99.7073
3054.6917,99.6631
3055.6558,99.6274
3056.6201,99.602
3057.5842,99.5844
3058.5486,99.5686
3059.5127,99.5467
3060.4771,99.5122
3061.4412,99.4625
3062.4055,99.4011
3063.3696,99.337
3064.3340,99.2809
3065.2981,99.2407
3066.2625,99.2168
3067.2266,99.2029
3068.1909,99.1897
3069.1550,99.1699
3070.1194,99.1414
3071.0835,99.1069
3072.0479,99.0707
3073.0120,99.0347
3073.9763,98.9976
3074.9404,98.9562
3075.9048,98.9088
3076.8689,98.8567
3077.8333,98.8042
3078.7974,98.7565
3079.7617,98.7164
3080.7258,98.6834
3081.6902,98.6543
3082.6543,98.625
3083.6187,98.5932
3084.5828,98.5582
3085.5471,98.5208
3086.5112,98.4818
3087.4756,98.441
3088.4397,98.3969
3089.4041,98.3479
3090.3682,98.2924
3091.3325,98.2305
3092.2966,98.1634
3093.2610,98.0927
3094.2251,98.0196
3095.1895,97.9448
3096.1536,97.8685
3097.1179,97.7912
3098.0820,97.7146
3099.0464,97.641
3100.0105,97.5727
3100.9749,97.5107
3101.9390,97.4541
3102.9033,97.4008
3103.8674,97.3488
3104.8318,97.2966
3105.7959,97.2434
3106.7603,97.1884
3107.7244,97.1301
3108.6887,97.066
3109.6528,96.9941
3110.6172,96.9138
3111.5813,96.8266
3112.5457,96.7361
3113.5098,96.6465
3114.4741,96.5618
3115.4382,96.4844
3116.4026,96.4149
3117.3667,96.3524
3118.3311,96.2956
3119.2952,96.2428
3120.2595,96.1923
3121.2236,96.142
3122.1880,96.09
3123.1521,96.035
3124.1165,95.9768
3125.0806,95.916
3126.0449,95.8528
3127.0090,95.7867
3127.9734,95.7163
3128.9375,95.641
3129.9019,95.5625
3130.8660,95.4849
3131.8303,95.4128
3132.7944,95.3489
3133.7588,95.2919
3134.7229,95.2371
3135.6873,95.179
3136.6514,95.1146
3137.6157,95.0438
3138.5798,94.9695
3139.5442,94.8945
3140.5083,94.8205
3141.4727,94.7472
3142.4368,94.6734
3143.4011,94.5978
3144.3652,94.52
3145.3296,94.4407
3146.2937,94.3621
3147.2581,94.2869
3148.2222,94.218
3149.1865,94.1558
3150.1506,94.098
3151.1150,94.0394
3152.0791,93.9745
3153.0435,93.9002
3154.0076,93.8173
3154.9719,93.7299
3155.9360,93.6425
3156.9004,93.5581
3157.8645,93.4772
3158.8289,93.3988
3159.7930,93.3222
3160.7573,93.2473
3161.7214,93.1739
3162.6858,93.1006
3163.6499,93.0248
3164.6143,92.944
3165.5784,92.858
3166.5427,92.7701
3167.5068,92.6854
3168.4712,92.6083
3169.4353,92.5983
3170.3997,92.5336
3171.3638,92.4666
3172.3281,92.392
3173.2922,92.3079
3174.2566,92.217
3175.2207,92.1246
3176.1851,92.0362
3177.1492,91.9551
3178.1135,91.8812
3179.0776,91.8116
3180.0420,91.7428
3181.0061,91.6726
3181.9705,91.6011
3182.9346,91.5302
3183.8989,91.4618
3184.8630,91.396
3185.8274,91.3307
3186.7915,91.2629
3187.7559,91.191
3188.7200,91.116
3189.6843,91.0418
3190.6484,90.972
3191.6128,90.9081
3192.5769,90.8479
3193.5413,90.7865
3194.5054,90.7193
3195.4697,90.6446
3196.4338,90.5642
3197.3982,90.4825
3198.3623,90.4038
3199.3267,90.3316
3200.2908,90.2669
3201.2551,90.209
3202.2192,90.1559
3203.1836,90.1039
3204.1477,90.0495
3205.1121,89.9899
3206.0762,89.9248
3207.0405,89.8559
3208.0046,89.7858
3208.9690,89.7156
3209.9331,89.6441
3210.8975,89.5696
3211.8616,89.4927
3212.8259,89.4175
3213.7900,89.3506
3214.7544,89.2966
3215.7185,89.255
3216.6829,89.2188
3217.6470,89.1786
3218.6113,89.1278
3219.5754,89.0658
3220.5398,88.9979
3221.5039,88.9307
3222.4683,88.8682
3223.4324,88.8103
3224.3967,88.7546
3225.3608,88.6994
3226.3252,88.6458
3227.2893,88.5964
3228.2537,88.553
3229.2178,88.5142
3230.1821,88.475
3231.1462,88.4303
3232.1106,88.3773
3233.0747,88.3175
3234.0391,88.2559
3235.0032,88.1974
3235.9675,88.1443
3236.9316,88.0951
3237.8960,88.0458
3238.8601,87.993
3239.8245,87.9364
3240.7886,87.8786
3241.7529,87.8242
3242.7170,87.776
3243.6814,87.7342
3244.6455,87.6956
3245.6099,87.6564
3246.5740,87.6141
3247.5383,87.5689
3248.5024,87.5227
3249.4668,87.4774
3250.4309,87.4331
3251.3953,87.3881
3252.3594,87.34
3253.3237,87.287
3254.2878,87.23
3255.2522,87.1723
3256.2163,87.1186
3257.1807,87.0733
3258.1448,87.0382
3259.1091,87.0109
3260.0732,86.9853
3261.0376,86.9539
3262.0017,86.9115
3262.9661,86.8587
3263.9302,86.8011
3264.8945,86.7469
3265.8586,86.7018
3266.8230,86.6655
3267.7871,86.632
3268.7515,86.5936
3269.7156,86.5456
3270.6799,86.4891
3271.6440,86.43
3272.6084,86.3756
3273.5725,86.3305
3274.5369,86.2952
3275.5010,86.2671
3276.4653,86.2424
3277.4294,86.2183
3278.3938,86.193
3279.3579,86.1655
3280.3223,86.135
3281.2864,86.1017
3282.2507,86.0665
3283.2148,86.0313
3284.1792,85.9973
3285.1433,85.9643
3286.1077,85.9305
3287.0718,85.8936
3288.0361,85.8517
3289.0002,85.8054
3289.9646,85.7571
3290.9287,85.7105
3291.8931,85.6691
3292.8572,85.6353
3293.8215,85.609
3294.7856,85.5878
3295.7500,85.5667
3296.7141,85.5405
3297.6785,85.5055
3298.6426,85.4624
3299.6069,85.4162
3300.5710,85.3744
3301.5354,85.3427
3302.4995,85.3213
3303.4639,85.3046
3304.4280,85.2844
3305.3923,85.2551
3306.3564,85.2171
3307.3208,85.1767
3308.2849,85.1414
3309.2493,85.1158
3310.2134,85.0987
3311.1777,85.085
3312.1418,85.0696
3313.1062,85.0503
3314.0703,85.0272
3315.0347,85.0014
3315.9988,84.9723
3316.9631,84.9382
3317.9272,84.8988
3318.8916,84.857
3319.8557,84.8191
3320.8201,84.7908
3321.7842,84.7735
3322.7485,84.7625
3323.7126,84.7491
3324.6770,84.7266
3325.6411,84.6941
3326.6055,84.6577
3327.5696,84.6262
3328.5339,84.6049
3329.4980,84.5923
3330.4624,84.5816
3331.4265,84.5648
3332.3909,84.5385
3333.3550,84.5059
3334.3193,84.4745
3335.2834,84.4519
3336.2478,84.4409
3337.2119,84.4385
3338.1763,84.4382
3339.1404,84.4336
3340.1047,84.4207
3341.0688,84.3992
3342.0332,84.3715
3342.9973,84.3417
3343.9617,84.315
3344.9258,84.2966
3345.8901,84.2898
3346.8542,84.2944
3347.8186,84.3063
3348.7827,84.3177
3349.7471,84.3207
3350.7112,84.3094
3351.6755,84.2828
3352.6396,84.2441
3353.6040,84.2006
3354.5681,84.1613
3355.5325,84.1349
3356.4966,84.1267
3357.4609,84.1356
3358.4250,84.1541
3359.3894,84.1705
3360.3535,84.1742
3361.3179,84.1611
3362.2820,84.1362
3363.2463,84.1107
3364.2104,84.0963
3365.1748,84.0982
3366.1389,84.113
3367.1033,84.1314
3368.0674,84.1441
3369.0317,84.1474
3369.9958,84.1434
3370.9602,84.1373
3371.9243,84.1334
3372.8887,84.1323
3373.8528,84.1326
3374.8171,84.1329
3375.7813,84.1342
3376.7456,84.1386
3377.7097,84.1468
3378.6741,84.1561
3379.6382,84.161
3380.6025,84.1566
3381.5667,84.1423
3382.5310,84.1237
3383.4951,84.11
3384.4595,84.1097
3385.4236,84.1259
3386.3879,84.1554
3387.3521,84.1914
3388.3164,84.2269
3389.2805,84.2577
3390.2449,84.2822
3391.2090,84.3013
3392.1733,84.3175
3393.1375,84.3349
3394.1018,84.3587
3395.0659,84.3929
3396.0303,84.4373
3396.9944,84.485
3397.9587,84.5249
3398.9229,84.5468
3399.8872,84.5481
3400.8513,84.5362
3401.8157,84.5245
3402.7798,84.5254
3403.7441,84.5432
3404.7083,84.5736
3405.6726,84.6079
3406.6367,84.6397
3407.6011,84.6684
3408.5652,84.6979
3409.5295,84.7327
3410.4937,84.7729
3411.4580,84.8135
3412.4221,84.8469
3413.3865,84.8679
3414.3506,84.8759
3415.3149,84.876
3416.2791,84.876
3417.2434,84.8842
3418.2075,84.9071
3419.1719,84.9483
3420.1360,85.0067
3421.1003,85.077
3422.0645,85.1513
3423.0288,85.222
3423.9929,85.2844
3424.9573,85.3372
3425.9214,85.3821
3426.8857,85.4233
3427.8499,85.4662
3428.8142,85.516
3429.7783,85.5758
3430.7427,85.6455
3431.7068,85.7212
3432.6711,85.7971
3433.6353,85.8673
3434.5996,85.9283
3435.5637,85.9794
3436.5281,86.0216
3437.4922,86.0562
3438.4565,86.0836
3439.4207,86.1033
3440.3850,86.1159
3441.3491,86.1236
3442.3135,86.1321
3443.2776,86.1494
3444.2419,86.1843
3445.2061,86.2434
3446.1704,86.3268
3447.1345,86.427
3448.0989,86.5305
3449.0630,86.6249
3450.0273,86.7049
3450.9915,86.7734
3451.9558,86.8372
3452.9199,86.902
3453.8843,86.9695
3454.8484,87.0367
3455.8127,87.0986
3456.7769,87.152
3457.7412,87.1971
3458.7053,87.2384
3459.6697,87.2827
3460.6338,87.3369
3461.5981,87.4053
3462.5623,87.488
3463.5266,87.5809
3464.4907,87.6771
3465.4551,87.7693
3466.4192,87.8525
3467.3835,87.9245
3468.3477,87.9865
3469.3120,88.0416
3470.2761,88.0942
3471.2405,88.1494
3472.2046,88.2125
3473.1689,88.2867
3474.1331,88.3709
3475.0974,88.4584
3476.0615,88.5393
3477.0259,88.6061
3477.9900,88.6577
3478.9543,88.7015
3479.9185,88.7494
3480.8828,88.8117
3481.8469,88.8899
3482.8113,88.976
3483.7754,89.0588
3484.7397,89.1318
3485.7039,89.1978
3486.6682,89.2662
3487.6323,89.3468
3488.5967,89.4427
3489.5608,89.5481
3490.5251,89.6507
3491.4893,89.7396
3492.4536,89.811
3493.4177,89.87
3494.3821,89.9269
3495.3462,89.9904
3496.3105,90.0603
3497.2747,90.1271
3498.2390,90.1791
3499.2031,90.2122
3500.1675,90.235
3501.1316,90.2684
3502.0959,90.3354
3503.0601,90.444
3504.0244,90.5796
3504.9885,90.715
3505.9529,90.8304
3506.9170,90.9222
3507.8813,91.0005
3508.8455,91.0805
3509.8098,91.1731
3510.7739,91.2784
3511.7383,91.3877
3512.7024,91.4916
3513.6667,91.5863
3514.6309,91.6731
3515.5952,91.7542
3516.5593,91.8299
3517.5237,91.8983
3518.4878,91.9578
3519.4521,92.0096
3520.4163,92.0587
3521.3806,92.1116
3522.3447,92.1733
3523.3091,92.2437
3524.2732,92.319
3525.2375,92.3964
3526.2017,92.4796
3527.1660,92.5779
3528.1301,92.6988
3529.0945,92.8399
3530.0586,92.9879
3531.0229,93.127
3531.9871,93.2478
3532.9514,93.3506
3533.9155,93.4434
3534.8799,93.5369
3535.8440,93.6386
3536.8083,93.7472
3537.7725,93.8525
3538.7368,93.9418
3539.7009,94.0074
3540.6653,94.0503
3541.6294,94.0797
3542.5938,94.112
3543.5579,94.1699
3544.5222,94.2727
3545.4863,94.4208
3546.4507,94.5892
3547.4148,94.7456
3548.3792,94.8758
3549.3433,94.9884
3550.3076,95.103
3551.2717,95.2346
3552.2361,95.3846
3553.2002,95.5396
3554.1646,95.6816
3555.1287,95.8006
3556.0930,95.899
3557.0571,95.9841
3558.0215,96.0591
3558.9856,96.1211
3559.9500,96.1655
3560.9141,96.1916
3561.8784,96.2046
3562.8425,96.2127
3563.8069,96.2261
3564.7710,96.2689
3565.7354,96.3916
3566.6995,96.6321
3567.6638,96.9415
3568.6279,97.2108
3569.5923,97.3808
3570.5564,97.4716
3571.5208,97.5299
3572.4849,97.5857
3573.4492,97.6451
3574.4133,97.7035
3575.3777,97.7594
3576.3418,97.8177
3577.3062,97.8853
3578.2703,97.9635
3579.2346,98.0452
3580.1987,98.1191
3581.1631,98.179
3582.1272,98.2277
3583.0916,98.2721
3584.0557,98.3144
3585.0200,98.3557
3585.9841,98.4109
3586.9485,98.4996
3587.9126,98.6011
3588.8770,98.6571
3589.8411,98.6395
3590.8054,98.5748
3591.7695,98.5068
3592.7339,98.4646
3593.6980,98.457
3594.6624,98.4756
3595.6265,98.5
3596.5908,98.5119
3597.5549,98.5126
3598.5193,98.5245
3599.4834,98.5735
3600.4478,98.6679
3601.4119,98.7904
3602.3762,98.9146
3603.3403,99.0262
3604.3047,99.1272
3605.2688,99.2262
3606.2332,99.3322
3607.1973,99.45
3608.1616,99.57
3609.1257,99.6646
3610.0901,99.7059
3611.0542,99.6886
3612.0186,99.6333
3612.9829,99.5729
3613.9470,99.5348
3614.9114,99.5317
3615.8755,99.5625
3616.8398,99.611
3617.8040,99.6753
3618.7683,99.7466
3619.7324,99.7903
3620.6968,99.7612
3621.6609,99.6544
3622.6252,99.5252
3623.5894,99.4499
3624.5537,99.4732
3625.5178,99.5826
3626.4822,99.7227
3627.4463,99.8504
3628.4106,99.9642
3629.3748,100.042
3630.3391,100.029
3631.3032,99.9381
3632.2676,99.8428
3633.2317,99.8058
3634.1960,99.8375
3635.1602,99.9076
3636.1245,99.9766
3637.0886,100.021
3638.0530,100.037
3639.0171,100.033
3639.9814,100.014
3640.9456,99.9823
3641.9099,99.9474
3642.8740,99.9269
3643.8384,99.9347
3644.8025,99.9566
3645.7668,99.935
3646.7310,99.8087
3647.6953,99.6412
3648.6594,99.6551
3649.6238,99.8955
3650.5879,100.113
3651.5522,100.162
3652.5164,100.108
3653.4807,100.048
3654.4448,100.021
3655.4092,100.012
3656.3733,99.9904
3657.3376,99.9384
3658.3018,99.8638
3659.2661,99.7958
3660.2302,99.7615
3661.1946,99.7646
3662.1587,99.7867
3663.1230,99.8085
3664.0872,99.8294
3665.0515,99.8601
3666.0156,99.8991
3666.9800,99.9161
3667.9441,99.8772
3668.9084,99.794
3669.8726,99.72
3670.8369,99.6858
3671.8010,99.6796
3672.7654,99.6738
3673.7295,99.6455
3674.6938,99.6074
3675.6580,99.6078
3676.6223,99.6496
3677.5864,99.6774
3678.5508,99.6684
3679.5149,99.6472
3680.4792,99.6346
3681.4434,99.6288
3682.4077,99.6238
3683.3718,99.6276
3684.3362,99.6549
3685.3003,99.699
3686.2646,99.7134
3687.2288,99.6392
3688.1931,99.4846
3689.1572,99.3532
3690.1216,99.3201
3691.0857,99.3489
3692.0500,99.381
3693.0142,99.4026
3693.9785,99.424
3694.9426,99.4547
3695.9070,99.4999
3696.8711,99.5632
3697.8354,99.645
3698.7996,99.7384
3699.7639,99.8298
3700.7280,99.9048
3701.6924,99.9519
3702.6565,99.9626
3703.6208,99.9371
3704.5850,99.8916
3705.5493,99.8489
3706.5134,99.8185
3707.4778,99.7879
3708.4419,99.7479
3709.4063,99.7426
3710.3704,99.8721
3711.3347,100.161
3712.2988,100.468
3713.2632,100.634
3714.2273,100.635
3715.1917,100.535
3716.1558,100.402
3717.1201,100.267
3718.0842,100.132
3719.0486,99.9881
3720.0127,99.8365
3720.9771,99.6903
3721.9412,99.5674
3722.9055,99.4827
3723.8696,99.4428
3724.8340,99.4421
3725.7981,99.4621
3726.7625,99.4845
3727.7266,99.5054
3728.6909,99.5325
3729.6550,99.5665
3730.6194,99.5857
3731.5835,99.5531
3732.5479,99.456
3733.5120,99.3735
3734.4763,99.3976
3735.4404,99.5549
3736.4048,99.7227
3737.3689,99.798
3738.3333,99.8183
3739.2974,99.8967
3740.2617,100.115
3741.2258,100.465
3742.1902,100.836
3743.1543,101.069
3744.1187,101.058
3745.0828,100.831
3746.0471,100.51
3747.0112,100.221
3747.9756,100.037
3748.9397,99.9811
3749.9041,100.06
3750.8682,100.245
3751.8325,100.399
3752.7966,100.396
3753.7610,100.258
3754.7251,100.091
3755.6895,99.9742
3756.6536,99.9322
3757.6179,99.958
3758.5820,100.031
3759.5464,100.116
3760.5105,100.178
3761.4749,100.203
3762.4390,100.203
3763.4033,100.195
3764.3674,100.19
3765.3318,100.189
3766.2959,100.193
3767.2603,100.203
3768.2244,100.223
3769.1887,100.258
3770.1528,100.301
3771.1172,100.335
3772.0813,100.34
3773.0457,100.319
3774.0098,100.286
3774.9741,100.254
3775.9382,100.221
3776.9026,100.183
3777.8667,100.144
3778.8311,100.116
3779.7952,100.097
3780.7595,100.072
3781.7236,100.033
3782.6880,99.988
3783.6521,99.9569
3784.6165,99.9588
3785.5806,100
3786.5449,100.071
3787.5090,100.148
3788.4734,100.214
3789.4375,100.26
3790.4019,100.288
3791.3660,100.3
3792.3303,100.287
3793.2944,100.235
3794.2588,100.138
3795.2229,100.017
3796.1873,99.9084
3797.1514,99.8468
3798.1157,99.8379
3799.0798,99.8588
3800.0442,99.882
3801.0083,99.8958
3801.9727,99.9015
3802.9368,99.9069
3803.9011,99.9331
3804.8652,100.003
3805.8296,100.112
3806.7937,100.22
3807.7581,100.269
3808.7222,100.23
3809.6865,100.14
3810.6506,100.073
3811.6150,100.08
3812.5791,100.145
3813.5435,100.199
3814.5076,100.172
3815.4719,100.052
3816.4360,99.8863
3817.4004,99.7359
3818.3645,99.6454
3819.3289,99.6369
3820.2930,99.7046
3821.2573,99.7978
3822.2214,99.8398
3823.1858,99.7972
3824.1499,99.7075
3825.1143,99.6344
3826.0784,99.6191
3827.0427,99.6641
3828.0068,99.7431
3828.9712,99.8212
3829.9353,99.875
3830.8997,99.9013
3831.8638,99.9124
3832.8281,99.9217
3833.7922,99.9281
3834.7566,99.91
3835.7207,99.8385
3836.6851,99.7082
3837.6492,99.5611
3838.6135,99.4626
3839.5776,99.4483
3840.5420,99.5085
3841.5061,99.6144
3842.4705,99.7328
3843.4346,99.8255
3844.3989,99.8566
3845.3630,99.8166
3846.3274,99.7387
3847.2915,99.6907
3848.2559,99.7406
3849.2200,99.9171
3850.1843,100.181
3851.1484,100.436
3852.1128,100.617
3853.0769,100.74
3854.0413,100.759
3855.0054,100.573
3855.9697,100.241
3856.9338,99.9211
3857.8982,99.7222
3858.8623,99.6585
3859.8267,99.6749
3860.7908,99.6945
3861.7551,99.6734
3862.7192,99.6328
3863.6836,99.6278
3864.6477,99.6845
3865.6121,99.7815
3866.5762,99.8759
3867.5405,99.9273
3868.5046,99.914
3869.4690,99.8477
3870.4331,99.7712
3871.3975,99.7258
3872.3616,99.7207
3873.3259,99.7411
3874.2900,99.7742
3875.2544,99.8174
3876.2185,99.8676
3877.1829,99.9092
3878.1470,99.9181
3879.1113,99.8806
3880.0754,99.814
3881.0398,99.7613
3882.0039,99.7626
3882.9683,99.8303
3883.9324,99.9425
3884.8967,100.053
3885.8608,100.116
3886.8252,100.11
3887.7893,100.049
3888.7537,99.9612
3889.7178,99.8707
3890.6821,99.7943
3891.6462,99.7446
3892.6106,99.7183
3893.5747,99.7021
3894.5391,99.6956
3895.5032,99.7089
3896.4675,99.739
3897.4316,99.7635
3898.3960,99.7613
3899.3601,99.7327
3900.3245,99.6963
3901.2886,99.6686
3902.2529,99.6592
3903.2170,99.673
3904.1814,99.7035
3905.1455,99.7317
3906.1099,99.7433
3907.0740,99.7405
3908.0383,99.734
3909.0024,99.7295
3909.9668,99.7259
3910.9309,99.7206
3911.8953,99.7151
3912.8594,99.7142
3913.8237,99.7203
3914.7878,99.731
3915.7522,99.7418
3916.7163,99.7485
3917.6807,99.7449
3918.6448,99.721
3919.6091,99.6721
3920.5732,99.6072
3921.5376,99.5443
3922.5017,99.4999
3923.4661,99.4809
3924.4302,99.4807
3925.3945,99.4814
3926.3586,99.4665
3927.3230,99.4327
3928.2871,99.3901
3929.2515,99.3552
3930.2156,99.3468
3931.1799,99.3781
3932.1440,99.4444
3933.1084,99.5214
3934.0725,99.5826
3935.0369,99.6171
3936.0010,99.6292
3936.9653,99.6273
3937.9294,99.6153
3938.8938,99.5921
3939.8579,99.5572
3940.8223,99.5168
3941.7864,99.4842
3942.7507,99.4706
3943.7148,99.4752
3944.6792,99.4864
3945.6433,99.4899
3946.6077,99.4769
3947.5718,99.4492
3948.5361,99.4194
3949.5002,99.4031
3950.4646,99.408
3951.4287,99.4298
3952.3931,99.458
3953.3572,99.4827
3954.3215,99.4971
3955.2856,99.499
3956.2500,99.4899
3957.2141,99.4736
3958.1785,99.4547
3959.1426,99.4383
3960.1069,99.4297
3961.0710,99.4333
3962.0354,99.4495
3962.9995,99.4735
3963.9639,99.4969
3964.9280,99.5112
3965.8923,99.5104
3966.8564,99.4933
3967.8208,99.4624
3968.7849,99.4233
3969.7493,99.3833
3970.7134,99.3495
3971.6777,99.3279
3972.6418,99.3223
3973.6062,99.3328
3974.5703,99.3552
3975.5347,99.382
3976.4988,99.4044
3977.4631,99.4167
3978.4272,99.4175
3979.3916,99.4096
3980.3557,99.3978
3981.3201,99.3865
3982.2842,99.3773
3983.2485,99.3692
3984.2126,99.3602
3985.1770,99.3499
3986.1411,99.3391
3987.1055,99.3291
3988.0696,99.3195
3989.0339,99.3077
3989.9980,99.2913
3990.9624,99.2711
3991.9265,99.2524
3992.8909,99.2433
3993.8550,99.2492
3994.8193,99.2715
3995.7834,99.3001
3996.7478,99.3224
3997.7119,99.3313
3998.6763,99.3272
3999.6404,99.3173
4000.6047,99.1184

##### Extended Information
[Comments]
Sample name
Comment
User
Division
Company,HANKYONG

[Detailed Information]
Creation date,4/24/2024 11:30 AM

Data array type,Linear data array
Horizontal axis,Wavenumber [cm-1]
Vertical axis,%T
Start,649.893 cm-1
End,4000.6 cm-1
Data interval,0.964233 cm-1
Data points,3476    

[Measurement Information]
Model Name,FT/IR-4700typeA
Serial Number,D056761788

Accessory,ATR PRO ONE
Accessory S/N,C174761809
Incident angle,45 deg

Measurement Date,4/24/2024 11:30 AM

Light Source,Standard
Detector,TGS
Accumulation,32
Resolution,4 cm-1
Zero Filling,On
Apodization,Cosine
Gain,Auto (4)
Aperture,Auto (7.1 mm)
Scanning Speed,Auto (2 mm/sec)
Filter,Auto (30000 Hz)

