TITLE,
DATA TYPE,INFRARED SPECTRUM
ORIGIN,JASCO
OWNER,
DATE,24/04/24
TIME,11:32:31
SPECTROMETER/DATA SYSTEM,
LOCALE,1033
RESOLUTION,
DELTAX,0.964233
XUNITS,1/CM
YUNITS,TRANSMITTANCE
FIRSTX,  649.8934
LASTX, 4000.6047
NPOINTS,    3476
FIRSTY,    97.92307
MAXY,   101.36124
MINY,    73.07767
XYDATA
649.8934,97.9231
650.8576,97.8024
651.8218,97.723
652.7861,97.6962
653.7503,97.71
654.7145,97.7413
655.6788,97.763
656.6430,97.7558
657.6072,97.7183
658.5715,97.6695
659.5357,97.64
660.4999,97.6517
661.4642,97.6962
662.4284,97.7304
663.3926,97.691
664.3569,97.5093
665.3211,97.1167
666.2853,96.4701
667.2496,95.6502
668.2138,94.9867
669.1780,94.8506
670.1423,95.1911
671.1065,95.6661
672.0707,96.0391
673.0350,96.2364
673.9992,96.2665
674.9634,96.1748
675.9277,96.0281
676.8919,95.8957
677.8561,95.8251
678.8204,95.8308
679.7846,95.9032
680.7488,96.0204
681.7131,96.1559
682.6773,96.2832
683.6415,96.3836
684.6058,96.4517
685.5700,96.4956
686.5342,96.5281
687.4985,96.5561
688.4627,96.5744
689.4269,96.5678
690.3912,96.5226
691.3554,96.4471
692.3196,96.3905
693.2839,96.4314
694.2481,96.6142
695.2123,96.9015
696.1766,97.2103
697.1408,97.471
698.1050,97.6488
699.0693,97.7405
700.0335,97.7651
700.9977,97.7504
701.9620,97.7198
702.9262,97.6869
703.8904,97.6581
704.8547,97.6373
705.8189,97.6255
706.7831,97.6168
707.7474,97.596
708.7116,97.5431
709.6758,97.4423
710.6401,97.2893
711.6043,97.0901
712.5685,96.8533
713.5328,96.5811
714.4970,96.267
715.4612,96.053
716.4255,95.6395
717.3897,95.2209
718.3539,94.8504
719.3182,94.5806
720.2824,94.4352
721.2466,94.3922
722.2109,94.3947
723.1751,94.3804
724.1393,94.3094
725.1036,94.1733
726.0678,93.9894
727.0320,93.7888
727.9963,93.6035
728.9605,93.458
729.9247,93.363
730.8890,93.3119
731.8532,93.2803
732.8174,93.2289
733.7817,93.1128
734.7459,92.8938
735.7101,92.5521
736.6744,92.0915
737.6386,91.5361
738.6028,90.9218
739.5671,90.2854
740.5313,89.6581
741.4955,89.0629
742.4598,88.5166
743.4240,88.0341
744.3882,87.6307
745.3525,87.3213
746.3167,87.1169
747.2809,87.0198
748.2452,87.0219
749.2094,87.1065
750.1736,87.2533
751.1379,87.4439
752.1021,87.6646
753.0663,87.9052
754.0306,88.1549
754.9948,88.3999
755.9590,88.6239
756.9233,88.8119
757.8875,88.9541
758.8517,89.0491
759.8160,89.1037
760.7802,89.1304
761.7444,89.143
762.7087,89.1531
763.6729,89.1673
764.6371,89.1873
765.6014,89.213
766.5656,89.2469
767.5298,89.2982
768.4941,89.3815
769.4583,89.5125
770.4225,89.6997
771.3868,89.9381
772.3510,90.2078
773.3152,90.4778
774.2795,90.7145
775.2437,90.891
776.2079,90.9925
777.1722,91.0183
778.1364,90.9781
779.1006,90.8856
780.0649,90.7529
781.0291,90.5881
781.9933,90.3981
782.9576,90.193
783.9218,89.9893
784.8860,89.8065
785.8503,89.6597
786.8145,89.5502
787.7787,89.4638
788.7430,89.3767
789.7072,89.2686
790.6714,89.1324
791.6357,88.9751
792.5999,88.8093
793.5641,88.6406
794.5284,88.4623
795.4926,88.2598
796.4568,88.0225
797.4211,87.7532
798.3853,87.4683
799.3495,87.1885
800.3138,86.9271
801.2780,86.6849
802.2422,86.4542
803.2065,86.2285
804.1707,86.0085
805.1349,85.8034
806.0992,85.6249
807.0634,85.4819
808.0276,85.3789
808.9919,85.3175
809.9561,85.2987
810.9203,85.3233
811.8846,85.3888
812.8488,85.4877
813.8130,85.6098
814.7773,85.7457
815.7415,85.8908
816.7057,86.0448
817.6700,86.2077
818.6342,86.3752
819.5984,86.5375
820.5627,86.6822
821.5269,86.7992
822.4911,86.8842
823.4554,86.9384
824.4196,86.9661
825.3839,86.9721
826.3481,86.9607
827.3123,86.9354
828.2766,86.8995
829.2408,86.8554
830.2050,86.8042
831.1693,86.7457
832.1335,86.6795
833.0977,86.6052
834.0620,86.5223
835.0262,86.4294
835.9904,86.3245
836.9547,86.206
837.9189,86.0751
838.8831,85.935
839.8474,85.7885
840.8116,85.6351
841.7758,85.4693
842.7401,85.2836
843.7043,85.0737
844.6685,84.8419
845.6328,84.5971
846.5970,84.3504
847.5612,84.1103
848.5255,83.881
849.4897,83.6655
850.4539,83.4687
851.4182,83.2988
852.3824,83.1641
853.3466,83.0679
854.3109,83.0069
855.2751,82.9725
856.2393,82.9566
857.2036,82.9544
858.1678,82.9641
859.1320,82.9826
860.0963,83.0036
861.0605,83.0189
862.0247,83.0249
862.9890,83.0281
863.9532,83.0451
864.9174,83.0948
865.8817,83.1878
866.8459,83.3197
867.8101,83.4736
868.7744,83.6293
869.7386,83.7727
870.7028,83.9002
871.6671,84.0135
872.6313,84.1115
873.5955,84.186
874.5598,84.2246
875.5240,84.2198
876.4882,84.1768
877.4525,84.1143
878.4167,84.0562
879.3809,84.0217
880.3452,84.0184
881.3094,84.0442
882.2736,84.0939
883.2379,84.1655
884.2021,84.2616
885.1663,84.3851
886.1306,84.5348
887.0948,84.7048
888.0590,84.8897
889.0233,85.09
889.9875,85.3146
890.9517,85.5766
891.9160,85.8853
892.8802,86.2395
893.8444,86.6266
894.8087,87.0286
895.7729,87.4287
896.7371,87.8168
897.7014,88.1892
898.6656,88.5457
899.6298,88.8857
900.5941,89.2061
901.5583,89.5025
902.5225,89.77
903.4868,90.0046
904.4510,90.2034
905.4152,90.3644
906.3795,90.4865
907.3437,90.5701
908.3079,90.6174
909.2722,90.6325
910.2364,90.6209
911.2006,90.5898
912.1649,90.5473
913.1291,90.5021
914.0933,90.463
915.0576,90.4371
916.0218,90.4289
916.9860,90.4401
917.9503,90.4706
918.9145,90.5191
919.8787,90.5844
920.8430,90.6657
921.8072,90.7617
922.7714,90.8697
923.7357,90.9862
924.6999,91.1061
925.6641,91.2251
926.6284,91.3411
927.5926,91.4557
928.5568,91.5762
929.5211,91.7154
930.4853,91.89
931.4495,92.1179
932.4138,92.4146
933.3780,92.7888
934.3422,93.24
935.3065,93.7562
936.2707,94.3151
937.2349,94.8876
938.1992,95.4437
939.1634,95.9607
940.1276,96.4285
941.0919,96.8508
942.0561,97.241
943.0203,97.6137
943.9846,97.9767
944.9488,98.3274
945.9130,98.6552
946.8773,98.9473
947.8415,99.1944
948.8057,99.393
949.7700,99.5443
950.7342,99.6519
951.6984,99.7197
952.6627,99.7673
953.6269,99.8327
954.5911,99.8787
955.5554,99.912
956.5196,99.9355
957.4838,99.9471
958.4481,99.941
959.4123,99.9109
960.3765,99.8518
961.3408,99.7623
962.3050,99.6454
963.2692,99.5084
964.2335,99.3631
965.1977,99.2231
966.1619,99.1009
967.1262,99.0044
968.0904,98.9353
969.0546,98.8901
970.0189,98.8627
970.9831,98.8471
971.9473,98.8391
972.9116,98.8364
973.8758,98.8381
974.8400,98.8442
975.8043,98.8545
976.7685,98.867
977.7327,98.8759
978.6970,98.8716
979.6612,98.8429
980.6254,98.7813
981.5897,98.6843
982.5539,98.5555
983.5181,98.4018
984.4824,98.2295
985.4466,98.0421
986.4108,97.8425
987.3751,97.6364
988.3393,97.4335
989.3035,97.2466
990.2678,97.0863
991.2320,96.957
992.1962,96.8552
993.1605,96.7723
994.1247,96.6993
995.0889,96.6316
996.0532,96.5704
997.0174,96.5203
997.9816,96.4849
998.9459,96.4631
999.9101,96.4469
1000.8743,96.4234
1001.8386,96.3781
1002.8028,96.2979
1003.7670,96.1724
1004.7313,95.9926
1005.6955,95.7499
1006.6597,95.4369
1007.6240,95.049
1008.5882,94.5871
1009.5524,94.0584
1010.5167,93.4746
1011.4809,92.8496
1012.4451,92.1954
1013.4094,91.5203
1014.3736,90.8279
1015.3378,90.1172
1016.3021,89.3854
1017.2663,88.6304
1018.2305,87.8539
1019.1948,87.0592
1020.1590,86.2467
1021.1232,85.4091
1022.0875,84.5312
1023.0517,83.5974
1024.0160,82.6051
1024.9802,81.5732
1025.9445,80.5411
1026.9087,79.5551
1027.8729,78.65
1028.8372,77.838
1029.8014,77.1094
1030.7656,76.444
1031.7299,75.8257
1032.6941,75.2501
1033.6583,74.7246
1034.6226,74.2635
1035.5868,73.8815
1036.5510,73.5894
1037.5153,73.3901
1038.4795,73.2757
1039.4437,73.2257
1040.4080,73.2114
1041.3722,73.204
1042.3364,73.1843
1043.3007,73.1487
1044.2649,73.1072
1045.2291,73.0777
1046.1934,73.0779
1047.1576,73.1233
1048.1218,73.227
1049.0861,73.4006
1050.0503,73.6515
1051.0145,73.9781
1051.9788,74.3664
1052.9430,74.7938
1053.9072,75.2384
1054.8715,75.6906
1055.8357,76.1572
1056.7999,76.654
1057.7642,77.1882
1058.7284,77.7404
1059.6926,78.2577
1060.6569,78.6677
1061.6211,78.9078
1062.5853,78.958
1063.5496,78.8563
1064.5138,78.6867
1065.4780,78.5423
1066.4423,78.4826
1067.4065,78.5079
1068.3707,78.5645
1069.3350,78.5772
1070.2992,78.4867
1071.2634,78.2738
1072.2277,77.9574
1073.1919,77.5764
1074.1561,77.1672
1075.1204,76.7534
1076.0846,76.3477
1077.0488,75.9592
1078.0131,75.5986
1078.9773,75.2768
1079.9415,75.0002
1080.9058,74.7685
1081.8700,74.5771
1082.8342,74.4215
1083.7985,74.3018
1084.7627,74.2241
1085.7269,74.1993
1086.6912,74.2408
1087.6554,74.3599
1088.6196,74.5616
1089.5839,74.8401
1090.5481,75.1774
1091.5123,75.5475
1092.4766,75.9255
1093.4408,76.2978
1094.4050,76.6676
1095.3693,77.0528
1096.3335,77.4778
1097.2977,77.9629
1098.2620,78.5157
1099.2262,79.1288
1100.1904,79.7826
1101.1547,80.4508
1102.1189,81.1076
1103.0831,81.734
1104.0474,82.3205
1105.0116,82.8677
1105.9758,83.3834
1106.9401,83.8789
1107.9043,84.3663
1108.8685,84.8583
1109.8328,85.368
1110.7970,85.9097
1111.7612,86.4961
1112.7255,87.1356
1113.6897,87.8284
1114.6539,88.5676
1115.6182,89.3407
1116.5824,90.1339
1117.5466,90.9348
1118.5109,91.7325
1119.4751,92.5166
1120.4393,93.2769
1121.4036,94.0044
1122.3678,94.6938
1123.3320,95.3439
1124.2963,95.9561
1125.2605,96.5317
1126.2247,97.0689
1127.1890,97.5625
1128.1532,98.0054
1129.1174,98.3915
1130.0817,98.7157
1131.0459,98.9737
1132.0101,99.1601
1132.9744,99.2684
1133.9386,99.2933
1134.9028,99.2332
1135.8671,99.0912
1136.8313,98.8611
1137.7955,98.5214
1138.7598,98.1146
1139.7240,97.6419
1140.6882,97.1078
1141.6525,96.5243
1142.6167,95.913
1143.5809,95.3024
1144.5452,94.7219
1145.5094,94.1954
1146.4736,93.7369
1147.4379,93.3502
1148.4021,93.0307
1149.3663,92.7682
1150.3306,92.5493
1151.2948,92.3584
1152.2590,92.1784
1153.2233,91.9934
1154.1875,91.7903
1155.1517,91.5622
1156.1160,91.3088
1157.0802,91.0349
1158.0444,90.7453
1159.0087,90.4405
1159.9729,90.1148
1160.9371,89.7583
1161.9014,89.3626
1162.8656,88.9257
1163.8298,88.4537
1164.7941,87.9576
1165.7583,87.4485
1166.7225,86.933
1167.6868,86.4139
1168.6510,85.8927
1169.6152,85.3726
1170.5795,84.8592
1171.5437,84.3581
1172.5079,83.8714
1173.4722,83.397
1174.4364,82.9296
1175.4006,82.4649
1176.3649,82.0017
1177.3291,81.5424
1178.2933,81.0907
1179.2576,80.6495
1180.2218,80.2186
1181.1860,79.7959
1182.1503,79.3789
1183.1145,78.9667
1184.0787,78.5607
1185.0430,78.1647
1186.0072,77.7836
1186.9714,77.4224
1187.9357,77.0853
1188.8999,76.775
1189.8641,76.4924
1190.8284,76.2367
1191.7926,76.006
1192.7568,75.7976
1193.7211,75.61
1194.6853,75.4433
1195.6495,75.2994
1196.6138,75.1808
1197.5780,75.0885
1198.5422,75.0204
1199.5065,75.0152
1200.4707,74.9726
1201.4349,74.9358
1202.3992,74.9026
1203.3634,74.8738
1204.3276,74.8518
1205.2919,74.8381
1206.2561,74.8325
1207.2203,74.8332
1208.1846,74.8377
1209.1488,74.8451
1210.1130,74.8555
1211.0773,74.8701
1212.0415,74.8893
1213.0057,74.9125
1213.9700,74.9376
1214.9342,74.9618
1215.8984,74.9822
1216.8627,74.9972
1217.8269,75.0064
1218.7911,75.0105
1219.7554,75.0104
1220.7196,75.0073
1221.6838,75.0018
1222.6481,74.9936
1223.6123,74.9819
1224.5765,74.9661
1225.5408,74.9455
1226.5050,74.9192
1227.4692,74.8843
1228.4335,74.8354
1229.3977,74.766
1230.3619,74.6727
1231.3262,74.5611
1232.2904,74.4485
1233.2546,74.3626
1234.2189,74.3329
1235.1831,74.3808
1236.1473,74.5122
1237.1116,74.7193
1238.0758,74.988
1239.0400,75.3071
1240.0043,75.6708
1240.9685,76.0734
1241.9327,76.4985
1242.8970,76.9136
1243.8612,77.2752
1244.8254,77.5438
1245.7897,77.6999
1246.7539,77.752
1247.7181,77.7301
1248.6824,77.6713
1249.6466,77.6051
1250.6108,77.5457
1251.5751,77.4931
1252.5393,77.4405
1253.5035,77.3814
1254.4678,77.3146
1255.4320,77.2451
1256.3962,77.182
1257.3605,77.1363
1258.3247,77.1168
1259.2889,77.1276
1260.2532,77.1661
1261.2174,77.2238
1262.1816,77.289
1263.1459,77.3497
1264.1101,77.3955
1265.0743,77.4173
1266.0386,77.407
1267.0028,77.358
1267.9670,77.2672
1268.9313,77.1365
1269.8955,76.9737
1270.8597,76.7909
1271.8240,76.6023
1272.7882,76.4219
1273.7524,76.2617
1274.7167,76.1319
1275.6809,76.0397
1276.6451,75.9891
1277.6094,75.9796
1278.5736,76.0061
1279.5378,76.0604
1280.5021,76.134
1281.4663,76.222
1282.4305,76.3242
1283.3948,76.4451
1284.3590,76.5924
1285.3232,76.7736
1286.2875,76.9951
1287.2517,77.2594
1288.2159,77.5643
1289.1802,77.9024
1290.1444,78.2619
1291.1086,78.6292
1292.0729,78.9918
1293.0371,79.3394
1294.0013,79.665
1294.9656,79.9643
1295.9298,80.2349
1296.8940,80.4768
1297.8583,80.6924
1298.8225,80.8862
1299.7867,81.0641
1300.7510,81.2324
1301.7152,81.3956
1302.6794,81.5574
1303.6437,81.7211
1304.6079,81.8892
1305.5721,82.063
1306.5364,82.2416
1307.5006,82.4221
1308.4648,82.6009
1309.4291,82.7769
1310.3933,82.9521
1311.3575,83.1304
1312.3218,83.3136
1313.2860,83.5
1314.2502,83.6847
1315.2145,83.8645
1316.1787,84.0405
1317.1429,84.2184
1318.1072,84.4036
1319.0714,84.5961
1320.0356,84.7886
1320.9999,84.9704
1321.9641,85.1341
1322.9283,85.2793
1323.8926,85.4107
1324.8568,85.5347
1325.8210,85.6557
1326.7853,85.7745
1327.7495,85.8895
1328.7137,85.9984
1329.6780,86.0992
1330.6422,86.1891
1331.6064,86.2629
1332.5707,86.3126
1333.5349,86.3288
1334.4991,86.3046
1335.4634,86.2402
1336.4276,86.149
1337.3918,86.061
1338.3561,86.0171
1339.3203,86.0447
1340.2845,86.1324
1341.2488,86.2347
1342.2130,86.3052
1343.1772,86.3207
1344.1415,86.2804
1345.1057,86.1959
1346.0699,86.0826
1347.0342,85.9552
1347.9984,85.8241
1348.9626,85.6934
1349.9269,85.5621
1350.8911,85.428
1351.8553,85.2928
1352.8196,85.1632
1353.7838,85.0494
1354.7480,84.9587
1355.7123,84.8893
1356.6765,84.8293
1357.6407,84.7645
1358.6050,84.6869
1359.5692,84.6018
1360.5334,84.5318
1361.4977,84.5105
1362.4619,84.5568
1363.4261,84.6505
1364.3904,84.7443
1365.3546,84.8028
1366.3188,84.8176
1367.2831,84.7973
1368.2473,84.7511
1369.2115,84.6807
1370.1758,84.5812
1371.1400,84.4471
1372.1042,84.2812
1373.0685,84.1028
1374.0327,83.9455
1374.9969,83.8377
1375.9612,83.784
1376.9254,83.7732
1377.8896,83.8013
1378.8539,83.8792
1379.8181,84.0214
1380.7823,84.2293
1381.7466,84.487
1382.7108,84.7749
1383.6750,85.0891
1384.6393,85.4482
1385.6035,85.8776
1386.5677,86.3724
1387.5320,86.8632
1388.4962,87.2421
1389.4604,87.4424
1390.4247,87.4771
1391.3889,87.4081
1392.3531,87.3059
1393.3174,87.2346
1394.2816,87.2437
1395.2458,87.3503
1396.2101,87.5208
1397.1743,87.6863
1398.1385,87.784
1399.1028,87.7861
1400.0670,87.698
1401.0313,87.5443
1401.9955,87.3554
1402.9597,87.1613
1403.9240,86.9902
1404.8882,86.8633
1405.8524,86.7858
1406.8167,86.744
1407.7809,86.7208
1408.7451,86.7108
1409.7094,86.7186
1410.6736,86.7462
1411.6378,86.7817
1412.6021,86.8043
1413.5663,86.8002
1414.5305,86.7716
1415.4948,86.7301
1416.4590,86.6884
1417.4232,86.6599
1418.3875,86.6508
1419.3517,86.6326
1420.3159,86.5499
1421.2802,86.3782
1422.2444,86.1414
1423.2086,85.8784
1424.1729,85.6145
1425.1371,85.3542
1426.1013,85.0858
1427.0656,84.79
1428.0298,84.45
1428.9940,84.0662
1429.9583,83.665
1430.9225,83.2883
1431.8867,82.9696
1432.8510,82.7176
1433.8152,82.5162
1434.7794,82.3363
1435.7437,82.1591
1436.7079,81.9841
1437.6721,81.805
1438.6364,81.6037
1439.6006,81.3817
1440.5648,81.1635
1441.5291,80.9712
1442.4933,80.8084
1443.4575,80.6636
1444.4218,80.522
1445.3860,80.3763
1446.3502,80.2285
1447.3145,80.0831
1448.2787,79.9351
1449.2429,79.769
1450.2072,79.575
1451.1714,79.3665
1452.1356,79.1737
1453.0999,79.0178
1454.0641,78.8902
1455.0283,78.7691
1455.9926,78.7006
1456.9568,78.8349
1457.9210,79.1644
1458.8853,79.4298
1459.8495,79.512
1460.8137,79.506
1461.7780,79.5404
1462.7422,79.7029
1463.7064,80.0409
1464.6707,80.5464
1465.6349,81.1272
1466.5991,81.6623
1467.5634,82.1094
1468.5276,82.5162
1469.4918,82.955
1470.4561,83.485
1471.4203,84.1591
1472.3845,85.0166
1473.3488,85.993
1474.3130,86.8872
1475.2772,87.5406
1476.2415,87.957
1477.2057,88.2238
1478.1699,88.4265
1479.1342,88.6269
1480.0984,88.8666
1481.0626,89.1646
1482.0269,89.5091
1482.9911,89.8617
1483.9553,90.1765
1484.9196,90.4199
1485.8838,90.5777
1486.8480,90.6635
1487.8123,90.7425
1488.7765,90.9204
1489.7407,91.2225
1490.7050,91.5262
1491.6692,91.7106
1492.6334,91.7653
1493.5977,91.7333
1494.5619,91.6373
1495.5261,91.4677
1496.4904,91.2181
1497.4546,90.9159
1498.4188,90.5925
1499.3831,90.2549
1500.3473,89.9232
1501.3115,89.6502
1502.2758,89.4846
1503.2400,89.425
1504.2042,89.3889
1505.1685,89.2279
1506.1327,88.8919
1507.0969,88.6429
1508.0612,88.677
1509.0254,88.7575
1509.9896,88.7156
1510.9539,88.5969
1511.9181,88.4793
1512.8823,88.4062
1513.8466,88.4044
1514.8108,88.5044
1515.7750,88.7336
1516.7393,89.0898
1517.7035,89.5405
1518.6677,90.0599
1519.6320,90.6584
1520.5962,91.3557
1521.5604,92.114
1522.5247,92.8366
1523.4889,93.4644
1524.4531,94.0334
1525.4174,94.6146
1526.3816,95.2222
1527.3458,95.7976
1528.3101,96.2748
1529.2743,96.6431
1530.2385,96.9485
1531.2028,97.2603
1532.1670,97.6338
1533.1312,98.0694
1534.0955,98.4979
1535.0597,98.8496
1536.0239,99.1231
1536.9882,99.3443
1537.9524,99.4804
1538.9166,99.4343
1539.8809,99.2262
1540.8451,99.1829
1541.8093,99.4871
1542.7736,99.8976
1543.7378,100.214
1544.7020,100.419
1545.6663,100.534
1546.6305,100.572
1547.5947,100.545
1548.5590,100.478
1549.5232,100.393
1550.4874,100.296
1551.4517,100.177
1552.4159,100.038
1553.3801,99.9026
1554.3444,99.8139
1555.3086,99.7894
1556.2728,99.7916
1557.2371,99.7775
1558.2013,99.8337
1559.1655,99.9878
1560.1298,99.9174
1561.0940,99.4821
1562.0582,98.8788
1563.0225,98.3123
1563.9867,97.8722
1564.9509,97.558
1565.9152,97.3182
1566.8794,97.0811
1567.8436,96.7892
1568.8079,96.4311
1569.7721,96.0397
1570.7363,95.6559
1571.7006,95.3063
1572.6648,94.9915
1573.6290,94.6701
1574.5933,94.268
1575.5575,93.7502
1576.5217,93.1858
1577.4860,92.6648
1578.4502,92.1912
1579.4144,91.7318
1580.3787,91.2704
1581.3429,90.7982
1582.3071,90.3052
1583.2714,89.7888
1584.2356,89.2569
1585.1998,88.7182
1586.1641,88.1746
1587.1283,87.6238
1588.0925,87.0668
1589.0568,86.5095
1590.0210,85.9594
1590.9852,85.4216
1591.9495,84.902
1592.9137,84.4125
1593.8779,83.973
1594.8422,83.6023
1595.8064,83.3058
1596.7706,83.0708
1597.7349,82.8756
1598.6991,82.7023
1599.6633,82.544
1600.6276,82.4051
1601.5918,82.2952
1602.5560,82.2208
1603.5203,82.1797
1604.4845,82.1649
1605.4487,82.174
1606.4130,82.2164
1607.3772,82.3111
1608.3414,82.4703
1609.3057,82.6793
1610.2699,82.8986
1611.2341,83.0944
1612.1984,83.2649
1613.1626,83.4342
1614.1268,83.6352
1615.0911,83.9055
1616.0553,84.265
1617.0195,84.6529
1617.9838,84.9461
1618.9480,85.1006
1619.9122,85.1891
1620.8765,85.3139
1621.8407,85.5391
1622.8049,85.8705
1623.7692,86.2604
1624.7334,86.6427
1625.6976,86.9898
1626.6619,87.3257
1627.6261,87.679
1628.5903,88.0416
1629.5546,88.3802
1630.5188,88.6799
1631.4830,88.9598
1632.4473,89.2445
1633.4115,89.5357
1634.3757,89.8334
1635.3400,90.1805
1636.3042,90.5905
1637.2684,90.9451
1638.2327,91.1477
1639.1969,91.2388
1640.1611,91.3045
1641.1254,91.3989
1642.0896,91.5327
1643.0538,91.677
1644.0181,91.7681
1644.9823,91.7431
1645.9465,91.623
1646.9108,91.5258
1647.8750,91.5356
1648.8392,91.6595
1649.8035,91.8908
1650.7677,92.1862
1651.7319,92.4288
1652.6962,92.5164
1653.6604,92.4543
1654.6246,92.1978
1655.5889,91.73
1656.5531,91.2011
1657.5173,90.7639
1658.4816,90.4679
1659.4458,90.2728
1660.4100,90.0987
1661.3743,89.8868
1662.3385,89.6349
1663.3027,89.3729
1664.2670,89.1232
1665.2312,88.8934
1666.1954,88.6709
1667.1597,88.4171
1668.1239,88.0951
1669.0881,87.7269
1670.0524,87.398
1671.0166,87.1691
1671.9808,87.0282
1672.9451,86.9339
1673.9093,86.8421
1674.8735,86.7023
1675.8378,86.4674
1676.8020,86.1267
1677.7662,85.7276
1678.7305,85.3555
1679.6947,85.0821
1680.6589,84.9232
1681.6232,84.829
1682.5874,84.7269
1683.5516,84.5951
1684.5159,84.4337
1685.4801,84.1827
1686.4443,83.8165
1687.4086,83.4005
1688.3728,83.0159
1689.3370,82.7093
1690.3013,82.4909
1691.2655,82.3433
1692.2297,82.2273
1693.1940,82.0855
1694.1582,81.8585
1695.1224,81.5231
1696.0867,81.1388
1697.0509,80.8502
1698.0151,80.7888
1698.9794,80.9305
1699.9436,81.0831
1700.9078,81.0624
1701.8721,80.8464
1702.8363,80.553
1703.8005,80.3301
1704.7648,80.2768
1705.7290,80.4107
1706.6932,80.6684
1707.6575,80.9508
1708.6217,81.1928
1709.5859,81.3936
1710.5502,81.5887
1711.5144,81.8075
1712.4786,82.0553
1713.4429,82.3251
1714.4071,82.6374
1715.3713,83.0918
1716.3356,83.8332
1717.2998,84.8189
1718.2640,85.7216
1719.2283,86.295
1720.1925,86.5938
1721.1567,86.8039
1722.1210,87.0675
1723.0852,87.4334
1724.0494,87.8718
1725.0137,88.3152
1725.9779,88.7042
1726.9421,89.0185
1727.9064,89.2776
1728.8706,89.5223
1729.8348,89.7939
1730.7991,90.1255
1731.7633,90.5467
1732.7275,91.073
1733.6918,91.6394
1734.6560,92.0776
1735.6202,92.2798
1736.5845,92.3129
1737.5487,92.3211
1738.5129,92.4047
1739.4772,92.5822
1740.4414,92.8083
1741.4056,93.016
1742.3699,93.1633
1743.3341,93.255
1744.2983,93.3257
1745.2626,93.409
1746.2268,93.5257
1747.1910,93.6966
1748.1553,93.9578
1749.1195,94.3386
1750.0837,94.7956
1751.0480,95.2059
1752.0122,95.4719
1752.9764,95.5971
1753.9407,95.6508
1754.9049,95.7023
1755.8691,95.7871
1756.8334,95.9077
1757.7976,96.0501
1758.7618,96.2035
1759.7261,96.3693
1760.6903,96.554
1761.6545,96.7528
1762.6188,96.9442
1763.5830,97.1054
1764.5472,97.2341
1765.5115,97.3463
1766.4757,97.4581
1767.4399,97.569
1768.4042,97.6647
1769.3684,97.7344
1770.3326,97.7952
1771.2969,97.897
1772.2611,98.0726
1773.2253,98.2796
1774.1896,98.4376
1775.1538,98.5186
1776.1180,98.5592
1777.0823,98.6095
1778.0465,98.6958
1779.0107,98.8163
1779.9750,98.9562
1780.9392,99.1027
1781.9034,99.2496
1782.8677,99.392
1783.8319,99.5179
1784.7961,99.6093
1785.7604,99.6548
1786.7246,99.6639
1787.6888,99.6624
1788.6531,99.6718
1789.6173,99.6926
1790.5815,99.7115
1791.5458,99.7269
1792.5100,99.7459
1793.4742,99.7549
1794.4385,99.7341
1795.4027,99.6958
1796.3669,99.6741
1797.3312,99.6899
1798.2954,99.7393
1799.2596,99.8061
1800.2239,99.8765
1801.1881,99.9414
1802.1523,99.9918
1803.1166,100.021
1804.0808,100.029
1805.0450,100.021
1806.0093,99.9995
1806.9735,99.9685
1807.9377,99.9323
1808.9020,99.9015
1809.8662,99.8916
1810.8304,99.9116
1811.7947,99.9542
1812.7589,100.003
1813.7231,100.044
1814.6874,100.074
1815.6516,100.094
1816.6158,100.103
1817.5801,100.101
1818.5443,100.088
1819.5085,100.068
1820.4728,100.049
1821.4370,100.038
1822.4012,100.034
1823.3655,100.031
1824.3297,100.018
1825.2939,99.9854
1826.2582,99.9323
1827.2224,99.8706
1828.1866,99.8246
1829.1509,99.8182
1830.1151,99.8528
1831.0793,99.8954
1832.0436,99.9069
1833.0078,99.8908
1833.9720,99.8695
1834.9363,99.8491
1835.9005,99.8404
1836.8647,99.8434
1837.8290,99.8555
1838.7932,99.8787
1839.7574,99.9207
1840.7217,99.9824
1841.6859,100.048
1842.6501,100.09
1843.6144,100.098
1844.5786,100.081
1845.5428,100.051
1846.5071,100.015
1847.4713,99.9903
1848.4355,99.9924
1849.3998,100.025
1850.3640,100.074
1851.3282,100.12
1852.2925,100.148
1853.2567,100.157
1854.2209,100.153
1855.1852,100.145
1856.1494,100.136
1857.1136,100.127
1858.0779,100.123
1859.0421,100.124
1860.0063,100.131
1860.9706,100.135
1861.9348,100.126
1862.8990,100.097
1863.8633,100.048
1864.8275,99.9838
1865.7917,99.915
1866.7560,99.8615
1867.7202,99.8582
1868.6844,99.9275
1869.6487,100.042
1870.6129,100.143
1871.5771,100.198
1872.5414,100.216
1873.5056,100.221
1874.4698,100.227
1875.4341,100.235
1876.3983,100.242
1877.3625,100.245
1878.3268,100.246
1879.2910,100.244
1880.2552,100.242
1881.2195,100.237
1882.1837,100.225
1883.1479,100.208
1884.1122,100.189
1885.0764,100.172
1886.0406,100.161
1887.0049,100.159
1887.9691,100.163
1888.9333,100.172
1889.8976,100.179
1890.8618,100.179
1891.8260,100.166
1892.7903,100.147
1893.7545,100.132
1894.7188,100.13
1895.6830,100.145
1896.6472,100.171
1897.6115,100.199
1898.5757,100.218
1899.5399,100.225
1900.5042,100.222
1901.4684,100.214
1902.4326,100.204
1903.3969,100.192
1904.3611,100.174
1905.3253,100.147
1906.2896,100.112
1907.2538,100.078
1908.2180,100.055
1909.1823,100.055
1910.1465,100.076
1911.1107,100.108
1912.0750,100.138
1913.0392,100.163
1914.0034,100.185
1914.9677,100.207
1915.9319,100.226
1916.8961,100.235
1917.8604,100.225
1918.8246,100.189
1919.7888,100.134
1920.7531,100.075
1921.7173,100.037
1922.6815,100.034
1923.6458,100.067
1924.6100,100.118
1925.5742,100.167
1926.5385,100.2
1927.5027,100.217
1928.4669,100.222
1929.4312,100.222
1930.3954,100.221
1931.3596,100.222
1932.3239,100.225
1933.2881,100.233
1934.2523,100.245
1935.2166,100.257
1936.1808,100.267
1937.1450,100.268
1938.1093,100.261
1939.0735,100.245
1940.0377,100.223
1941.0020,100.2
1941.9662,100.184
1942.9304,100.183
1943.8947,100.197
1944.8589,100.219
1945.8231,100.247
1946.7874,100.278
1947.7516,100.309
1948.7158,100.337
1949.6801,100.357
1950.6443,100.368
1951.6085,100.371
1952.5728,100.373
1953.5370,100.378
1954.5012,100.388
1955.4655,100.402
1956.4297,100.416
1957.3939,100.427
1958.3582,100.434
1959.3224,100.438
1960.2866,100.439
1961.2509,100.437
1962.2151,100.429
1963.1793,100.415
1964.1436,100.397
1965.1078,100.383
1966.0720,100.38
1967.0363,100.394
1968.0005,100.423
1968.9647,100.458
1969.9290,100.488
1970.8932,100.508
1971.8574,100.518
1972.8217,100.522
1973.7859,100.524
1974.7501,100.527
1975.7144,100.533
1976.6786,100.539
1977.6428,100.545
1978.6071,100.548
1979.5713,100.551
1980.5355,100.552
1981.4998,100.552
1982.4640,100.552
1983.4282,100.55
1984.3925,100.544
1985.3567,100.533
1986.3209,100.518
1987.2852,100.499
1988.2494,100.479
1989.2136,100.461
1990.1779,100.451
1991.1421,100.451
1992.1063,100.463
1993.0706,100.482
1994.0348,100.501
1994.9990,100.515
1995.9633,100.521
1996.9275,100.521
1997.8917,100.52
1998.8560,100.519
1999.8202,100.52
2000.7844,100.521
2001.7487,100.522
2002.7129,100.52
2003.6771,100.513
2004.6414,100.503
2005.6056,100.491
2006.5698,100.482
2007.5341,100.477
2008.4983,100.477
2009.4625,100.482
2010.4268,100.488
2011.3910,100.489
2012.3552,100.481
2013.3195,100.464
2014.2837,100.438
2015.2479,100.411
2016.2122,100.391
2017.1764,100.385
2018.1406,100.395
2019.1049,100.414
2020.0691,100.435
2021.0333,100.451
2021.9976,100.461
2022.9618,100.464
2023.9260,100.464
2024.8903,100.464
2025.8545,100.464
2026.8187,100.465
2027.7830,100.466
2028.7472,100.466
2029.7114,100.466
2030.6757,100.465
2031.6399,100.466
2032.6041,100.467
2033.5684,100.469
2034.5326,100.472
2035.4968,100.475
2036.4611,100.476
2037.4253,100.474
2038.3895,100.469
2039.3538,100.461
2040.3180,100.455
2041.2822,100.454
2042.2465,100.46
2043.2107,100.472
2044.1749,100.486
2045.1392,100.499
2046.1034,100.508
2047.0676,100.513
2048.0320,100.514
2048.9961,100.516
2049.9604,100.518
2050.9246,100.523
2051.8889,100.529
2052.8530,100.535
2053.8174,100.538
2054.7815,100.538
2055.7458,100.537
2056.7100,100.535
2057.6743,100.535
2058.6384,100.534
2059.6028,100.53
2060.5669,100.522
2061.5313,100.51
2062.4954,100.497
2063.4597,100.488
2064.4238,100.488
2065.3882,100.498
2066.3523,100.517
2067.3167,100.537
2068.2808,100.555
2069.2451,100.567
2070.2092,100.572
2071.1736,100.572
2072.1377,100.571
2073.1021,100.569
2074.0662,100.568
2075.0305,100.57
2075.9946,100.574
2076.9590,100.578
2077.9231,100.583
2078.8875,100.587
2079.8516,100.589
2080.8159,100.59
2081.7800,100.59
2082.7444,100.591
2083.7085,100.592
2084.6729,100.594
2085.6370,100.596
2086.6013,100.598
2087.5654,100.601
2088.5298,100.605
2089.4939,100.609
2090.4583,100.613
2091.4224,100.615
2092.3867,100.615
2093.3508,100.615
2094.3152,100.615
2095.2793,100.619
2096.2437,100.625
2097.2078,100.632
2098.1721,100.639
2099.1362,100.643
2100.1006,100.642
2101.0647,100.641
2102.0291,100.639
2102.9932,100.639
2103.9575,100.639
2104.9216,100.64
2105.8860,100.64
2106.8501,100.639
2107.8145,100.637
2108.7786,100.635
2109.7429,100.631
2110.7070,100.628
2111.6714,100.624
2112.6355,100.622
2113.5999,100.621
2114.5640,100.624
2115.5283,100.629
2116.4924,100.636
2117.4568,100.643
2118.4209,100.647
2119.3853,100.649
2120.3494,100.65
2121.3137,100.648
2122.2778,100.646
2123.2422,100.643
2124.2063,100.64
2125.1707,100.636
2126.1348,100.634
2127.0991,100.636
2128.0632,100.643
2129.0276,100.653
2129.9917,100.664
2130.9561,100.672
2131.9202,100.673
2132.8845,100.666
2133.8486,100.656
2134.8130,100.647
2135.7771,100.642
2136.7415,100.645
2137.7056,100.654
2138.6699,100.666
2139.6340,100.676
2140.5984,100.682
2141.5625,100.683
2142.5269,100.682
2143.4910,100.682
2144.4553,100.683
2145.4194,100.688
2146.3838,100.693
2147.3479,100.699
2148.3123,100.704
2149.2764,100.706
2150.2407,100.705
2151.2048,100.701
2152.1692,100.696
2153.1333,100.691
2154.0977,100.689
2155.0618,100.689
2156.0261,100.693
2156.9902,100.697
2157.9546,100.699
2158.9187,100.7
2159.8831,100.699
2160.8472,100.699
2161.8115,100.701
2162.7756,100.706
2163.7400,100.71
2164.7041,100.714
2165.6685,100.715
2166.6326,100.712
2167.5969,100.705
2168.5610,100.697
2169.5254,100.69
2170.4895,100.685
2171.4539,100.682
2172.4180,100.683
2173.3823,100.686
2174.3464,100.689
2175.3108,100.692
2176.2749,100.696
2177.2393,100.701
2178.2034,100.705
2179.1677,100.706
2180.1318,100.705
2181.0962,100.699
2182.0603,100.69
2183.0247,100.681
2183.9888,100.673
2184.9531,100.669
2185.9172,100.669
2186.8816,100.672
2187.8457,100.676
2188.8101,100.68
2189.7742,100.683
2190.7385,100.684
2191.7026,100.685
2192.6670,100.685
2193.6311,100.686
2194.5955,100.686
2195.5596,100.686
2196.5239,100.685
2197.4880,100.683
2198.4524,100.68
2199.4165,100.677
2200.3809,100.673
2201.3450,100.67
2202.3093,100.667
2203.2734,100.665
2204.2378,100.662
2205.2019,100.658
2206.1663,100.654
2207.1304,100.65
2208.0947,100.647
2209.0588,100.646
2210.0232,100.644
2210.9873,100.64
2211.9517,100.634
2212.9158,100.626
2213.8801,100.619
2214.8442,100.613
2215.8086,100.61
2216.7727,100.608
2217.7371,100.608
2218.7012,100.606
2219.6655,100.603
2220.6296,100.599
2221.5940,100.594
2222.5581,100.59
2223.5225,100.588
2224.4866,100.586
2225.4509,100.583
2226.4150,100.579
2227.3794,100.573
2228.3435,100.566
2229.3079,100.558
2230.2720,100.549
2231.2363,100.54
2232.2004,100.53
2233.1648,100.521
2234.1289,100.514
2235.0933,100.508
2236.0574,100.504
2237.0217,100.502
2237.9858,100.498
2238.9502,100.492
2239.9143,100.483
2240.8787,100.47
2241.8428,100.456
2242.8071,100.443
2243.7712,100.432
2244.7356,100.421
2245.6997,100.41
2246.6641,100.398
2247.6282,100.385
2248.5925,100.371
2249.5566,100.357
2250.5210,100.343
2251.4851,100.328
2252.4495,100.312
2253.4136,100.294
2254.3779,100.275
2255.3420,100.256
2256.3064,100.237
2257.2705,100.218
2258.2349,100.197
2259.1990,100.176
2260.1633,100.155
2261.1274,100.136
2262.0918,100.12
2263.0559,100.108
2264.0203,100.101
2264.9844,100.097
2265.9487,100.093
2266.9128,100.088
2267.8772,100.08
2268.8413,100.069
2269.8057,100.056
2270.7698,100.044
2271.7341,100.033
2272.6982,100.024
2273.6626,100.018
2274.6267,100.016
2275.5911,100.018
2276.5552,100.024
2277.5195,100.036
2278.4836,100.054
2279.4480,100.074
2280.4121,100.093
2281.3765,100.107
2282.3406,100.109
2283.3049,100.098
2284.2690,100.071
2285.2334,100.03
2286.1975,99.9776
2287.1619,99.9204
2288.1260,99.8627
2289.0903,99.8074
2290.0544,99.7546
2291.0188,99.7038
2291.9829,99.6559
2292.9473,99.6136
2293.9114,99.5808
2294.8757,99.5598
2295.8398,99.5503
2296.8042,99.5499
2297.7683,99.5574
2298.7327,99.5742
2299.6968,99.6047
2300.6611,99.6521
2301.6252,99.7148
2302.5896,99.7839
2303.5537,99.8454
2304.5181,99.8854
2305.4822,99.8982
2306.4465,99.89
2307.4106,99.8794
2308.3750,99.8899
2309.3391,99.9389
2310.3035,100.029
2311.2676,100.146
2312.2319,100.266
2313.1960,100.366
2314.1604,100.441
2315.1245,100.498
2316.0889,100.559
2317.0530,100.639
2318.0173,100.743
2318.9814,100.853
2319.9458,100.93
2320.9099,100.927
2321.8743,100.808
2322.8384,100.57
2323.8027,100.256
2324.7668,99.938
2325.7312,99.6951
2326.6953,99.5798
2327.6597,99.598
2328.6238,99.7048
2329.5881,99.8195
2330.5522,99.8593
2331.5166,99.7777
2332.4807,99.5859
2333.4451,99.3413
2334.4092,99.1137
2335.3735,98.9499
2336.3376,98.856
2337.3020,98.8008
2338.2661,98.7361
2339.2305,98.6277
2340.1946,98.4855
2341.1589,98.3834
2342.1230,98.4445
2343.0874,98.7456
2344.0515,99.1724
2345.0159,99.4457
2345.9800,99.3892
2346.9443,99.0864
2347.9084,98.7641
2348.8728,98.6117
2349.8369,98.6898
2350.8013,98.9207
2351.7654,99.1349
2352.7297,99.1804
2353.6938,99.0187
2354.6582,98.744
2355.6223,98.462
2356.5867,98.1881
2357.5508,97.9011
2358.5151,97.6307
2359.4792,97.4484
2360.4436,97.3955
2361.4077,97.4574
2362.3721,97.6081
2363.3362,97.8471
2364.3005,98.1837
2365.2646,98.6029
2366.2290,99.062
2367.1931,99.5156
2368.1575,99.9363
2369.1216,100.314
2370.0859,100.643
2371.0500,100.917
2372.0144,101.125
2372.9785,101.259
2373.9429,101.313
2374.9070,101.283
2375.8713,101.176
2376.8354,101.004
2377.7998,100.787
2378.7639,100.552
2379.7283,100.326
2380.6924,100.132
2381.6567,99.9841
2382.6208,99.8875
2383.5852,99.8383
2384.5493,99.8258
2385.5137,99.8365
2386.4778,99.8575
2387.4421,99.8787
2388.4063,99.8944
2389.3706,99.9028
2390.3347,99.9049
2391.2991,99.9033
2392.2632,99.9011
2393.2275,99.901
2394.1917,99.9042
2395.1560,99.9106
2396.1201,99.9189
2397.0845,99.9277
2398.0486,99.935
2399.0129,99.9399
2399.9771,99.9419
2400.9414,99.9406
2401.9055,99.9364
2402.8699,99.93
2403.8340,99.923
2404.7983,99.9172
2405.7625,99.9139
2406.7268,99.9134
2407.6909,99.9147
2408.6553,99.9169
2409.6194,99.9193
2410.5837,99.9221
2411.5479,99.9261
2412.5122,99.9315
2413.4763,99.9377
2414.4407,99.9437
2415.4048,99.9485
2416.3691,99.9523
2417.3333,99.956
2418.2976,99.9605
2419.2617,99.9654
2420.2261,99.9687
2421.1902,99.9683
2422.1545,99.9634
2423.1187,99.9551
2424.0830,99.9469
2425.0471,99.9423
2426.0115,99.9432
2426.9756,99.9495
2427.9399,99.9589
2428.9041,99.9687
2429.8684,99.9771
2430.8325,99.9836
2431.7969,99.9881
2432.7610,99.9907
2433.7253,99.9909
2434.6895,99.9885
2435.6538,99.9843
2436.6179,99.9801
2437.5823,99.9782
2438.5464,99.9803
2439.5107,99.9864
2440.4749,99.9946
2441.4392,100.002
2442.4033,100.006
2443.3677,100.007
2444.3318,100.006
2445.2961,100.003
2446.2603,100.001
2447.2246,99.9989
2448.1887,99.9949
2449.1531,99.9885
2450.1172,99.9807
2451.0815,99.9743
2452.0457,99.9724
2453.0100,99.9764
2453.9741,99.9845
2454.9385,99.9924
2455.9026,99.9957
2456.8669,99.9918
2457.8311,99.9818
2458.7954,99.9692
2459.7595,99.9583
2460.7239,99.9522
2461.6880,99.9522
2462.6523,99.9573
2463.6165,99.965
2464.5808,99.9724
2465.5449,99.9767
2466.5093,99.976
2467.4734,99.9706
2468.4377,99.9626
2469.4019,99.9553
2470.3662,99.9519
2471.3303,99.9537
2472.2947,99.9599
2473.2588,99.9678
2474.2231,99.9743
2475.1873,99.977
2476.1516,99.9755
2477.1157,99.971
2478.0801,99.9657
2479.0442,99.962
2480.0085,99.9617
2480.9727,99.9648
2481.9370,99.97
2482.9011,99.9747
2483.8655,99.9768
2484.8296,99.9755
2485.7939,99.972
2486.7581,99.9685
2487.7224,99.9673
2488.6865,99.9692
2489.6509,99.9731
2490.6150,99.9769
2491.5793,99.9788
2492.5435,99.9781
2493.5078,99.9759
2494.4719,99.9739
2495.4363,99.9736
2496.4004,99.9751
2497.3647,99.9775
2498.3289,99.9789
2499.2932,99.9775
2500.2573,99.9729
2501.2217,99.9657
2502.1858,99.9573
2503.1501,99.9498
2504.1143,99.9441
2505.0786,99.9406
2506.0427,99.9385
2507.0071,99.9364
2507.9712,99.9328
2508.9355,99.9272
2509.8997,99.9193
2510.8640,99.9105
2511.8281,99.9023
2512.7925,99.8967
2513.7566,99.895
2514.7209,99.8974
2515.6851,99.9026
2516.6494,99.9082
2517.6135,99.9115
2518.5779,99.9108
2519.5420,99.9056
2520.5063,99.8972
2521.4705,99.8881
2522.4348,99.8801
2523.3989,99.8743
2524.3633,99.8702
2525.3274,99.8665
2526.2917,99.8622
2527.2559,99.8569
2528.2202,99.8512
2529.1843,99.8461
2530.1487,99.8419
2531.1128,99.8381
2532.0771,99.834
2533.0413,99.8292
2534.0056,99.8238
2534.9697,99.8186
2535.9341,99.8145
2536.8982,99.812
2537.8625,99.811
2538.8267,99.8111
2539.7910,99.8116
2540.7551,99.812
2541.7195,99.8119
2542.6836,99.8109
2543.6479,99.8087
2544.6121,99.805
2545.5764,99.7996
2546.5405,99.7929
2547.5049,99.7862
2548.4690,99.7811
2549.4333,99.7793
2550.3975,99.7817
2551.3618,99.7879
2552.3259,99.7958
2553.2903,99.8026
2554.2544,99.8055
2555.2188,99.8036
2556.1829,99.7979
2557.1472,99.7909
2558.1113,99.7856
2559.0757,99.7835
2560.0398,99.7839
2561.0042,99.7846
2561.9683,99.783
2562.9326,99.7781
2563.8967,99.7716
2564.8611,99.7668
2565.8252,99.7671
2566.7896,99.7732
2567.7537,99.7831
2568.7180,99.7928
2569.6821,99.7983
2570.6465,99.7982
2571.6106,99.7937
2572.5750,99.7878
2573.5391,99.7831
2574.5034,99.7805
2575.4675,99.7791
2576.4319,99.7774
2577.3960,99.7747
2578.3604,99.7714
2579.3245,99.7689
2580.2888,99.7689
2581.2529,99.7719
2582.2173,99.7773
2583.1814,99.7834
2584.1458,99.7881
2585.1099,99.7899
2586.0742,99.7887
2587.0383,99.7854
2588.0027,99.7819
2588.9668,99.7798
2589.9312,99.7796
2590.8953,99.7806
2591.8596,99.7812
2592.8237,99.7798
2593.7881,99.7761
2594.7522,99.7711
2595.7166,99.767
2596.6807,99.766
2597.6450,99.7692
2598.6091,99.776
2599.5735,99.7845
2600.5376,99.7919
2601.5020,99.7957
2602.4661,99.7948
2603.4304,99.7899
2604.3945,99.7828
2605.3589,99.7764
2606.3230,99.7729
2607.2874,99.7734
2608.2515,99.7776
2609.2158,99.7837
2610.1799,99.79
2611.1443,99.795
2612.1084,99.7982
2613.0728,99.7996
2614.0369,99.7995
2615.0012,99.7983
2615.9653,99.7961
2616.9297,99.7931
2617.8938,99.7899
2618.8582,99.787
2619.8223,99.785
2620.7866,99.7844
2621.7507,99.7853
2622.7151,99.7874
2623.6792,99.7907
2624.6436,99.7949
2625.6077,99.7994
2626.5720,99.8035
2627.5361,99.8059
2628.5005,99.8058
2629.4646,99.8027
2630.4290,99.7974
2631.3931,99.7913
2632.3574,99.7864
2633.3215,99.7845
2634.2859,99.7859
2635.2500,99.79
2636.2144,99.7951
2637.1785,99.8
2638.1428,99.8045
2639.1069,99.8093
2640.0713,99.8157
2641.0354,99.8244
2641.9998,99.8348
2642.9639,99.845
2643.9282,99.8527
2644.8923,99.856
2645.8567,99.8543
2646.8208,99.8485
2647.7852,99.8403
2648.7493,99.8319
2649.7136,99.8252
2650.6777,99.8215
2651.6421,99.8216
2652.6062,99.8254
2653.5706,99.832
2654.5347,99.8394
2655.4990,99.8456
2656.4631,99.8494
2657.4275,99.851
2658.3916,99.852
2659.3560,99.8545
2660.3201,99.8598
2661.2844,99.8674
2662.2485,99.8753
2663.2129,99.8815
2664.1770,99.8852
2665.1414,99.8877
2666.1055,99.8912
2667.0698,99.8973
2668.0339,99.9055
2668.9983,99.9137
2669.9624,99.9193
2670.9268,99.9212
2671.8909,99.9209
2672.8552,99.9214
2673.8193,99.9257
2674.7837,99.9342
2675.7478,99.9449
2676.7122,99.9538
2677.6763,99.9574
2678.6406,99.9541
2679.6047,99.9451
2680.5691,99.9339
2681.5332,99.9239
2682.4976,99.9178
2683.4617,99.916
2684.4260,99.9171
2685.3901,99.919
2686.3545,99.9197
2687.3186,99.9186
2688.2830,99.9167
2689.2471,99.9161
2690.2114,99.919
2691.1755,99.9264
2692.1399,99.9372
2693.1040,99.9486
2694.0684,99.9571
2695.0325,99.9604
2695.9968,99.9584
2696.9609,99.9534
2697.9253,99.9482
2698.8894,99.9451
2699.8538,99.9442
2700.8179,99.9442
2701.7822,99.9433
2702.7463,99.9404
2703.7107,99.9357
2704.6748,99.9301
2705.6392,99.9244
2706.6033,99.9185
2707.5676,99.9119
2708.5317,99.9045
2709.4961,99.8973
2710.4602,99.8915
2711.4246,99.8883
2712.3887,99.8873
2713.3530,99.8865
2714.3171,99.8833
2715.2815,99.8756
2716.2456,99.8635
2717.2100,99.8488
2718.1741,99.835
2719.1384,99.8249
2720.1025,99.8197
2721.0669,99.8179
2722.0310,99.8162
2722.9954,99.8112
2723.9595,99.8004
2724.9238,99.7842
2725.8879,99.7651
2726.8523,99.7464
2727.8164,99.731
2728.7808,99.7199
2729.7449,99.7129
2730.7092,99.7089
2731.6733,99.7074
2732.6377,99.7087
2733.6018,99.7132
2734.5662,99.7206
2735.5303,99.7293
2736.4946,99.7373
2737.4587,99.7432
2738.4231,99.7478
2739.3872,99.7538
2740.3516,99.765
2741.3157,99.7843
2742.2800,99.8118
2743.2441,99.8448
2744.2085,99.8785
2745.1726,99.9078
2746.1370,99.9292
2747.1011,99.9418
2748.0654,99.9475
2749.0295,99.9496
2749.9939,99.9518
2750.9580,99.9566
2751.9224,99.9645
2752.8865,99.974
2753.8508,99.9856
2754.8149,99.9975
2755.7793,100.004
2756.7434,100.005
2757.7078,100.002
2758.6719,99.9981
2759.6362,99.9943
2760.6003,99.9922
2761.5647,99.9922
2762.5288,99.9939
2763.4932,99.9962
2764.4573,99.9978
2765.4216,99.998
2766.3857,99.9974
2767.3501,99.9975
2768.3142,99.9997
2769.2786,100.004
2770.2427,100.009
2771.2070,100.01
2772.1711,100.003
2773.1355,99.9869
2774.0996,99.9628
2775.0640,99.9358
2776.0281,99.9109
2776.9924,99.8904
2777.9565,99.8729
2778.9209,99.8546
2779.8850,99.8316
2780.8494,99.803
2781.8135,99.771
2782.7778,99.7404
2783.7419,99.7153
2784.7063,99.6977
2785.6704,99.686
2786.6348,99.6765
2787.5989,99.6645
2788.5632,99.6474
2789.5273,99.6249
2790.4917,99.5993
2791.4558,99.5737
2792.4202,99.5501
2793.3843,99.529
2794.3486,99.5091
2795.3127,99.4887
2796.2771,99.4669
2797.2412,99.4435
2798.2056,99.4184
2799.1697,99.3902
2800.1340,99.3572
2801.0981,99.3178
2802.0625,99.2723
2803.0266,99.2236
2803.9910,99.1756
2804.9551,99.1308
2805.9194,99.0894
2806.8835,99.0484
2807.8479,99.0038
2808.8120,98.9523
2809.7764,98.893
2810.7405,98.8266
2811.7048,98.7548
2812.6689,98.6791
2813.6333,98.6005
2814.5974,98.52
2815.5618,98.4379
2816.5259,98.3539
2817.4902,98.2661
2818.4543,98.1714
2819.4187,98.0668
2820.3828,97.9504
2821.3472,97.8224
2822.3113,97.6849
2823.2756,97.54
2824.2397,97.3889
2825.2041,97.2315
2826.1682,97.0665
2827.1326,96.8924
2828.0967,96.7073
2829.0610,96.5092
2830.0251,96.2958
2830.9895,96.0649
2831.9536,95.8155
2832.9180,95.5478
2833.8821,95.263
2834.8464,94.9625
2835.8105,94.6459
2836.7749,94.3118
2837.7390,93.9576
2838.7034,93.5814
2839.6675,93.1817
2840.6318,92.7578
2841.5959,92.308
2842.5603,91.8306
2843.5244,91.3258
2844.4888,90.7996
2845.4529,90.2672
2846.4172,89.7514
2847.3813,89.2784
2848.3457,88.8692
2849.3098,88.5336
2850.2742,88.2679
2851.2383,88.0593
2852.2026,87.8924
2853.1667,87.7556
2854.1311,87.6426
2855.0952,87.5512
2856.0596,87.4791
2857.0237,87.4215
2857.9880,87.3702
2858.9521,87.3158
2859.9165,87.2497
2860.8806,87.1661
2861.8450,87.0632
2862.8091,86.9428
2863.7734,86.8105
2864.7375,86.6736
2865.7019,86.54
2866.6660,86.4162
2867.6304,86.3069
2868.5945,86.2152
2869.5588,86.1443
2870.5229,86.0974
2871.4873,86.0772
2872.4514,86.0843
2873.4158,86.1158
2874.3799,86.165
2875.3442,86.2229
2876.3083,86.2795
2877.2727,86.3261
2878.2368,86.3562
2879.2012,86.3667
2880.1653,86.3588
2881.1296,86.3376
2882.0938,86.3103
2883.0581,86.2843
2884.0222,86.2637
2884.9866,86.2481
2885.9507,86.2326
2886.9150,86.2093
2887.8792,86.1697
2888.8435,86.1081
2889.8076,86.0242
2890.7720,85.9233
2891.7361,85.8146
2892.7004,85.705
2893.6646,85.593
2894.6289,85.467
2895.5930,85.3092
2896.5574,85.1066
2897.5215,84.8614
2898.4858,84.5945
2899.4500,84.3381
2900.4143,84.1208
2901.3784,83.9537
2902.3428,83.8251
2903.3069,83.7075
2904.2712,83.5707
2905.2354,83.3942
2906.1997,83.1711
2907.1638,82.9055
2908.1282,82.6057
2909.0923,82.2792
2910.0566,81.932
2911.0208,81.5702
2911.9851,81.2021
2912.9492,80.839
2913.9136,80.4931
2914.8777,80.1751
2915.8420,79.8927
2916.8062,79.6485
2917.7705,79.4412
2918.7346,79.2672
2919.6990,79.1236
2920.6631,79.0104
2921.6274,78.9311
2922.5916,78.8908
2923.5559,78.8932
2924.5200,78.9383
2925.4844,79.0229
2926.4485,79.142
2927.4128,79.2916
2928.3770,79.4694
2929.3413,79.6749
2930.3054,79.9072
2931.2698,80.165
2932.2339,80.4455
2933.1982,80.7458
2934.1624,81.0627
2935.1267,81.3921
2936.0908,81.7284
2937.0552,82.0639
2938.0193,82.3896
2938.9836,82.6974
2939.9478,82.9819
2940.9121,83.2422
2941.8762,83.4811
2942.8406,83.7019
2943.8047,83.9054
2944.7690,84.0872
2945.7332,84.239
2946.6975,84.3516
2947.6616,84.4194
2948.6260,84.4431
2949.5901,84.4294
2950.5544,84.3884
2951.5186,84.3304
2952.4829,84.2638
2953.4470,84.1944
2954.4114,84.1272
2955.3755,84.0675
2956.3398,84.0215
2957.3040,83.9954
2958.2683,83.9943
2959.2324,84.0199
2960.1968,84.0702
2961.1609,84.1398
2962.1252,84.2221
2963.0894,84.312
2964.0537,84.4086
2965.0178,84.5151
2965.9822,84.6373
2966.9463,84.7807
2967.9106,84.9483
2968.8748,85.1409
2969.8391,85.3586
2970.8032,85.6015
2971.7676,85.8703
2972.7317,86.164
2973.6960,86.4793
2974.6602,86.8102
2975.6245,87.1502
2976.5886,87.4943
2977.5530,87.8408
2978.5171,88.1898
2979.4814,88.5413
2980.4456,88.8917
2981.4099,89.2328
2982.3740,89.5526
2983.3384,89.8406
2984.3025,90.0945
2985.2668,90.3265
2986.2310,90.5644
2987.1953,90.8433
2988.1594,91.1909
2989.1238,91.613
2990.0879,92.0876
2991.0522,92.5728
2992.0164,93.0245
2992.9807,93.4144
2993.9448,93.7394
2994.9092,94.017
2995.8733,94.2721
2996.8376,94.5231
2997.8018,94.7757
2998.7661,95.0257
2999.7302,95.2665
3000.6946,95.4959
3001.6587,95.7179
3002.6230,95.9399
3003.5872,96.1682
3004.5515,96.4044
3005.5156,96.6439
3006.4800,96.8781
3007.4441,97.0971
3008.4084,97.2949
3009.3726,97.4714
3010.3369,97.6335
3011.3010,97.7913
3012.2654,97.953
3013.2295,98.1202
3014.1938,98.2875
3015.1580,98.4464
3016.1223,98.5904
3017.0864,98.718
3018.0508,98.8329
3019.0149,98.9405
3019.9792,99.0451
3020.9434,99.1479
3021.9077,99.2485
3022.8718,99.3456
3023.8362,99.4374
3024.8003,99.5217
3025.7646,99.5955
3026.7288,99.6568
3027.6931,99.7071
3028.6572,99.7515
3029.6216,99.7983
3030.5857,99.8545
3031.5500,99.8873
3032.5142,99.9249
3033.4785,99.9641
3034.4426,99.999
3035.4070,100.028
3036.3711,100.052
3037.3354,100.073
3038.2996,100.092
3039.2639,100.105
3040.2280,100.107
3041.1924,100.096
3042.1565,100.071
3043.1208,100.036
3044.0850,99.9981
3045.0493,99.9648
3046.0134,99.941
3046.9778,99.928
3047.9419,99.922
3048.9063,99.9154
3049.8704,99.8998
3050.8347,99.8691
3051.7988,99.823
3052.7632,99.767
3053.7273,99.7103
3054.6917,99.6625
3055.6558,99.6298
3056.6201,99.6131
3057.5842,99.6072
3058.5486,99.6033
3059.5127,99.592
3060.4771,99.5664
3061.4412,99.5247
3062.4055,99.4711
3063.3696,99.4148
3064.3340,99.3661
3065.2981,99.3324
3066.2625,99.3146
3067.2266,99.3073
3068.1909,99.3022
3069.1550,99.2921
3070.1194,99.2738
3071.0835,99.248
3072.0479,99.2169
3073.0120,99.182
3073.9763,99.1433
3074.9404,99.1006
3075.9048,99.0548
3076.8689,99.0087
3077.8333,98.9664
3078.7974,98.9315
3079.7617,98.9048
3080.7258,98.8848
3081.6902,98.8686
3082.6543,98.853
3083.6187,98.8354
3084.5828,98.8144
3085.5471,98.7886
3086.5112,98.757
3087.4756,98.7183
3088.4397,98.6719
3089.4041,98.6177
3090.3682,98.5566
3091.3325,98.4903
3092.2966,98.4207
3093.2610,98.3502
3094.2251,98.28
3095.1895,98.211
3096.1536,98.1428
3097.1179,98.0754
3098.0820,98.0092
3099.0464,97.9455
3100.0105,97.8856
3100.9749,97.8299
3101.9390,97.7771
3102.9033,97.7251
3103.8674,97.6722
3104.8318,97.6179
3105.7959,97.5628
3106.7603,97.508
3107.7244,97.4533
3108.6887,97.3974
3109.6528,97.3379
3110.6172,97.2732
3111.5813,97.2027
3112.5457,97.1276
3113.5098,97.0502
3114.4741,96.9737
3115.4382,96.9008
3116.4026,96.8335
3117.3667,96.7726
3118.3311,96.7175
3119.2952,96.6661
3120.2595,96.6162
3121.2236,96.5658
3122.1880,96.5145
3123.1521,96.4632
3124.1165,96.4129
3125.0806,96.3637
3126.0449,96.313
3127.0090,96.2567
3127.9734,96.1907
3128.9375,96.1143
3129.9019,96.0314
3130.8660,95.9496
3131.8303,95.8772
3132.7944,95.8189
3133.7588,95.7742
3134.7229,95.737
3135.6873,95.6996
3136.6514,95.6554
3137.6157,95.601
3138.5798,95.5366
3139.5442,95.4644
3140.5083,95.3873
3141.4727,95.3082
3142.4368,95.2299
3143.4011,95.1541
3144.3652,95.0821
3145.3296,95.0137
3146.2937,94.9487
3147.2581,94.8866
3148.2222,94.8271
3149.1865,94.7692
3150.1506,94.7108
3151.1150,94.6487
3152.0791,94.5803
3153.0435,94.5051
3154.0076,94.4261
3154.9719,94.3484
3155.9360,94.2763
3156.9004,94.2109
3157.8645,94.1492
3158.8289,94.086
3159.7930,94.0175
3160.7573,93.9428
3161.7214,93.8646
3162.6858,93.7868
3163.6499,93.7118
3164.6143,93.64
3165.5784,93.5708
3166.5427,93.5037
3167.5068,93.4398
3168.4712,93.3806
3169.4353,93.3739
3170.3997,93.3196
3171.3638,93.2596
3172.3281,93.1885
3173.2922,93.1044
3174.2566,93.0104
3175.2207,92.9137
3176.1851,92.8222
3177.1492,92.7415
3178.1135,92.6728
3179.0776,92.6132
3180.0420,92.5586
3181.0061,92.506
3181.9705,92.4546
3182.9346,92.4052
3183.8989,92.3576
3184.8630,92.31
3185.8274,92.258
3186.7915,92.1979
3187.7559,92.1281
3188.7200,92.0514
3189.6843,91.9732
3190.6484,91.8988
3191.6128,91.8305
3192.5769,91.7666
3193.5413,91.7034
3194.5054,91.6383
3195.4697,91.5718
3196.4338,91.5075
3197.3982,91.4495
3198.3623,91.3998
3199.3267,91.3572
3200.2908,91.3186
3201.2551,91.2805
3202.2192,91.2403
3203.1836,91.1956
3204.1477,91.1445
3205.1121,91.0855
3206.0762,91.0197
3207.0405,90.9503
3208.0046,90.8824
3208.9690,90.8195
3209.9331,90.762
3210.8975,90.7071
3211.8616,90.652
3212.8259,90.5963
3213.7900,90.5433
3214.7544,90.4965
3215.7185,90.4567
3216.6829,90.4203
3217.6470,90.3809
3218.6113,90.334
3219.5754,90.2796
3220.5398,90.222
3221.5039,90.1665
3222.4683,90.1156
3223.4324,90.0685
3224.3967,90.0224
3225.3608,89.9761
3226.3252,89.9311
3227.2893,89.891
3228.2537,89.8582
3229.2178,89.8311
3230.1821,89.8044
3231.1462,89.7709
3232.1106,89.7259
3233.0747,89.6701
3234.0391,89.6095
3235.0032,89.5524
3235.9675,89.5055
3236.9316,89.4702
3237.8960,89.4418
3238.8601,89.4119
3239.8245,89.3731
3240.7886,89.323
3241.7529,89.2659
3242.7170,89.2103
3243.6814,89.1645
3244.6455,89.1325
3245.6099,89.1116
3246.5740,89.0942
3247.5383,89.073
3248.5024,89.044
3249.4668,89.0076
3250.4309,88.9665
3251.3953,88.9233
3252.3594,88.8786
3253.3237,88.8315
3254.2878,88.7814
3255.2522,88.7297
3256.2163,88.6798
3257.1807,88.6359
3258.1448,88.6001
3259.1091,88.5716
3260.0732,88.5469
3261.0376,88.5216
3262.0017,88.4924
3262.9661,88.4591
3263.9302,88.4237
3264.8945,88.3885
3265.8586,88.3542
3266.8230,88.3188
3267.7871,88.278
3268.7515,88.2285
3269.7156,88.17
3270.6799,88.1066
3271.6440,88.0458
3272.6084,87.9952
3273.5725,87.9593
3274.5369,87.9379
3275.5010,87.9266
3276.4653,87.9192
3277.4294,87.9105
3278.3938,87.8976
3279.3579,87.8796
3280.3223,87.8567
3281.2864,87.8296
3282.2507,87.7987
3283.2148,87.7644
3284.1792,87.7269
3285.1433,87.6862
3286.1077,87.6424
3287.0718,87.5964
3288.0361,87.5501
3289.0002,87.5065
3289.9646,87.469
3290.9287,87.4399
3291.8931,87.4194
3292.8572,87.4053
3293.8215,87.3939
3294.7856,87.3809
3295.7500,87.3631
3296.7141,87.3392
3297.6785,87.3101
3298.6426,87.2792
3299.6069,87.2508
3300.5710,87.2282
3301.5354,87.2119
3302.4995,87.1988
3303.4639,87.1839
3304.4280,87.1635
3305.3923,87.1374
3306.3564,87.11
3307.3208,87.0871
3308.2849,87.0718
3309.2493,87.0623
3310.2134,87.0529
3311.1777,87.0376
3312.1418,87.0147
3313.1062,86.9877
3314.0703,86.9627
3315.0347,86.9443
3315.9988,86.9325
3316.9631,86.9233
3317.9272,86.9118
3318.8916,86.8964
3319.8557,86.8791
3320.8201,86.8642
3321.7842,86.8542
3322.7485,86.8473
3323.7126,86.8386
3324.6770,86.823
3325.6411,86.7989
3326.6055,86.7698
3327.5696,86.742
3328.5339,86.7206
3329.4980,86.7064
3330.4624,86.6966
3331.4265,86.6872
3332.3909,86.6765
3333.3550,86.6665
3334.3193,86.6608
3335.2834,86.6614
3336.2478,86.6664
3337.2119,86.6705
3338.1763,86.6688
3339.1404,86.6597
3340.1047,86.6461
3341.0688,86.6326
3342.0332,86.6227
3342.9973,86.6166
3343.9617,86.6119
3344.9258,86.606
3345.8901,86.5986
3346.8542,86.5916
3347.8186,86.5881
3348.7827,86.5895
3349.7471,86.5942
3350.7112,86.598
3351.6755,86.5957
3352.6396,86.5838
3353.6040,86.5624
3354.5681,86.5355
3355.5325,86.5101
3356.4966,86.4926
3357.4609,86.4863
3358.4250,86.4889
3359.3894,86.4945
3360.3535,86.4959
3361.3179,86.4896
3362.2820,86.4772
3363.2463,86.4645
3364.2104,86.4582
3365.1748,86.4617
3366.1389,86.4734
3367.1033,86.4879
3368.0674,86.4992
3369.0317,86.5046
3369.9958,86.5049
3370.9602,86.5029
3371.9243,86.5007
3372.8887,86.4978
3373.8528,86.4919
3374.8171,86.4819
3375.7813,86.4695
3376.7456,86.4598
3377.7097,86.458
3378.6741,86.4659
3379.6382,86.4804
3380.6025,86.4949
3381.5667,86.5039
3382.5310,86.5063
3383.4951,86.5059
3384.4595,86.5086
3385.4236,86.5176
3386.3879,86.5314
3387.3521,86.546
3388.3164,86.5579
3389.2805,86.5664
3390.2449,86.5737
3391.2090,86.5821
3392.1733,86.593
3393.1375,86.6072
3394.1018,86.6272
3395.0659,86.6577
3396.0303,86.7022
3396.9944,86.7589
3397.9587,86.8178
3398.9229,86.8647
3399.8872,86.8891
3400.8513,86.8908
3401.8157,86.8812
3402.7798,86.8767
3403.7441,86.8901
3404.7083,86.9238
3405.6726,86.9705
3406.6367,87.0186
3407.6011,87.0595
3408.5652,87.0914
3409.5295,87.1178
3410.4937,87.1441
3411.4580,87.1731
3412.4221,87.2028
3413.3865,87.2285
3414.3506,87.2448
3415.3149,87.2499
3416.2791,87.246
3417.2434,87.2413
3418.2075,87.2473
3419.1719,87.2755
3420.1360,87.3323
3421.1003,87.4139
3422.0645,87.5076
3423.0288,87.5971
3423.9929,87.6696
3424.9573,87.7209
3425.9214,87.7549
3426.8857,87.7815
3427.8499,87.8116
3428.8142,87.8528
3429.7783,87.9075
3430.7427,87.9734
3431.7068,88.0454
3432.6711,88.1189
3433.6353,88.1894
3434.5996,88.2537
3435.5637,88.3089
3436.5281,88.3529
3437.4922,88.3853
3438.4565,88.4075
3439.4207,88.4229
3440.3850,88.4355
3441.3491,88.4493
3442.3135,88.4681
3443.2776,88.4963
3444.2419,88.5381
3445.2061,88.5972
3446.1704,88.6735
3447.1345,88.7621
3448.0989,88.8547
3449.0630,88.9441
3450.0273,89.0275
3450.9915,89.1062
3451.9558,89.182
3452.9199,89.2543
3453.8843,89.3202
3454.8484,89.3769
3455.8127,89.4246
3456.7769,89.4665
3457.7412,89.5073
3458.7053,89.5504
3459.6697,89.5973
3460.6338,89.6483
3461.5981,89.704
3462.5623,89.766
3463.5266,89.8363
3464.4907,89.9158
3465.4551,90.0034
3466.4192,90.095
3467.3835,90.1843
3468.3477,90.2638
3469.3120,90.3276
3470.2761,90.374
3471.2405,90.4084
3472.2046,90.4416
3473.1689,90.486
3474.1331,90.5481
3475.0974,90.6236
3476.0615,90.6992
3477.0259,90.7604
3477.9900,90.8015
3478.9543,90.8294
3479.9185,90.8601
3480.8828,90.9088
3481.8469,90.9799
3482.8113,91.0643
3483.7754,91.1469
3484.7397,91.219
3485.7039,91.2822
3486.6682,91.3464
3487.6323,91.421
3488.5967,91.5074
3489.5608,91.5975
3490.5251,91.6799
3491.4893,91.7481
3492.4536,91.8039
3493.4177,91.8568
3494.3821,91.9163
3495.3462,91.9851
3496.3105,92.0553
3497.2747,92.1128
3498.2390,92.1472
3499.2031,92.16
3500.1675,92.1658
3501.1316,92.1892
3502.0959,92.252
3503.0601,92.3588
3504.0244,92.4911
3504.9885,92.6209
3505.9529,92.7286
3506.9170,92.8106
3507.8813,92.8753
3508.8455,92.9358
3509.8098,93.0031
3510.7739,93.0807
3511.7383,93.166
3512.7024,93.2547
3513.6667,93.3443
3514.6309,93.4327
3515.5952,93.5168
3516.5593,93.5914
3517.5237,93.6522
3518.4878,93.6982
3519.4521,93.7324
3520.4163,93.7608
3521.3806,93.7897
3522.3447,93.8243
3523.3091,93.8671
3524.2732,93.9195
3525.2375,93.9848
3526.2017,94.069
3527.1660,94.1782
3528.1301,94.312
3529.0945,94.4594
3530.0586,94.6024
3531.0229,94.7255
3531.9871,94.824
3532.9514,94.9043
3533.9155,94.9802
3534.8799,95.066
3535.8440,95.1692
3536.8083,95.285
3537.7725,95.3968
3538.7368,95.4861
3539.7009,95.5417
3540.6653,95.5652
3541.6294,95.5692
3542.5938,95.576
3543.5579,95.614
3544.5222,95.7061
3545.4863,95.8509
3546.4507,96.0182
3547.4148,96.1703
3548.3792,96.2908
3549.3433,96.3911
3550.3076,96.497
3551.2717,96.6311
3552.2361,96.7988
3553.2002,96.983
3554.1646,97.1558
3555.1287,97.2969
3556.0930,97.4042
3557.0571,97.487
3558.0215,97.5556
3558.9856,97.6139
3559.9500,97.6592
3560.9141,97.6866
3561.8784,97.6948
3562.8425,97.6887
3563.8069,97.682
3564.7710,97.7092
3565.7354,97.8319
3566.6995,98.0906
3567.6638,98.4277
3568.6279,98.7228
3569.5923,98.9103
3570.5564,99.0097
3571.5208,99.0707
3572.4849,99.1274
3573.4492,99.1902
3574.4133,99.2565
3575.3777,99.3232
3576.3418,99.391
3577.3062,99.4623
3578.2703,99.5348
3579.2346,99.5998
3580.1987,99.6369
3581.1631,99.6521
3582.1272,99.6526
3583.0916,99.6489
3584.0557,99.6474
3585.0200,99.6539
3585.9841,99.6864
3586.9485,99.7635
3587.9126,99.8608
3588.8770,99.9163
3589.8411,99.8986
3590.8054,99.8304
3591.7695,99.752
3592.7339,99.6902
3593.6980,99.6536
3594.6624,99.6374
3595.6265,99.6287
3596.5908,99.6179
3597.5549,99.612
3598.5193,99.6317
3599.4834,99.6947
3600.4478,99.7969
3601.4119,99.9109
3602.3762,100.007
3603.3403,100.075
3604.3047,100.124
3605.2688,100.173
3606.2332,100.239
3607.1973,100.333
3608.1616,100.446
3609.1257,100.542
3610.0901,100.584
3611.0542,100.555
3612.0186,100.471
3612.9829,100.367
3613.9470,100.278
3614.9114,100.228
3615.8755,100.223
3616.8398,100.261
3617.8040,100.329
3618.7683,100.41
3619.7324,100.462
3620.6968,100.44
3621.6609,100.341
3622.6252,100.217
3623.5894,100.137
3624.5537,100.142
3625.5178,100.22
3626.4822,100.327
3627.4463,100.437
3628.4106,100.558
3629.3748,100.664
3630.3391,100.689
3631.3032,100.626
3632.2676,100.544
3633.2317,100.506
3634.1960,100.528
3635.1602,100.587
3636.1245,100.645
3637.0886,100.68
3638.0530,100.686
3639.0171,100.669
3639.9814,100.638
3640.9456,100.595
3641.9099,100.551
3642.8740,100.52
3643.8384,100.511
3644.8025,100.512
3645.7668,100.47
3646.7310,100.34
3647.6953,100.193
3648.6594,100.239
3649.6238,100.501
3650.5879,100.722
3651.5522,100.765
3652.5164,100.697
3653.4807,100.619
3654.4448,100.578
3655.4092,100.569
3656.3733,100.569
3657.3376,100.557
3658.3018,100.528
3659.2661,100.501
3660.2302,100.492
3661.1946,100.503
3662.1587,100.516
3663.1230,100.516
3664.0872,100.505
3665.0515,100.499
3666.0156,100.504
3666.9800,100.495
3667.9441,100.446
3668.9084,100.364
3669.8726,100.294
3670.8369,100.257
3671.8010,100.244
3672.7654,100.23
3673.7295,100.202
3674.6938,100.176
3675.6580,100.195
3676.6223,100.257
3677.5864,100.303
3678.5508,100.308
3679.5149,100.293
3680.4792,100.277
3681.4434,100.258
3682.4077,100.232
3683.3718,100.213
3684.3362,100.221
3685.3003,100.255
3686.2646,100.274
3687.2288,100.222
3688.1931,100.096
3689.1572,99.983
3690.1216,99.9487
3691.0857,99.9682
3692.0500,99.9955
3693.0142,100.02
3693.9785,100.05
3694.9426,100.09
3695.9070,100.14
3696.8711,100.203
3697.8354,100.277
3698.7996,100.359
3699.7639,100.439
3700.7280,100.504
3701.6924,100.545
3702.6565,100.55
3703.6208,100.519
3704.5850,100.468
3705.5493,100.419
3706.5134,100.385
3707.4778,100.359
3708.4419,100.337
3709.4063,100.363
3710.3704,100.522
3711.3347,100.823
3712.2988,101.121
3713.2632,101.274
3714.2273,101.264
3715.1917,101.158
3716.1558,101.021
3717.1201,100.88
3718.0842,100.734
3719.0486,100.576
3720.0127,100.412
3720.9771,100.262
3721.9412,100.147
3722.9055,100.082
3723.8696,100.065
3724.8340,100.077
3725.7981,100.098
3726.7625,100.11
3727.7266,100.118
3728.6909,100.136
3729.6550,100.166
3730.6194,100.189
3731.5835,100.169
3732.5479,100.093
3733.5120,100.015
3734.4763,100.038
3735.4404,100.174
3736.4048,100.301
3737.3689,100.324
3738.3333,100.287
3739.2974,100.308
3740.2617,100.473
3741.2258,100.78
3742.1902,101.129
3743.1543,101.361
3744.1187,101.356
3745.0828,101.117
3746.0471,100.757
3747.0112,100.412
3747.9756,100.17
3748.9397,100.069
3749.9041,100.13
3750.8682,100.341
3751.8325,100.528
3752.7966,100.55
3753.7610,100.423
3754.7251,100.254
3755.6895,100.126
3756.6536,100.071
3757.6179,100.091
3758.5820,100.169
3759.5464,100.27
3760.5105,100.35
3761.4749,100.39
3762.4390,100.397
3763.4033,100.389
3764.3674,100.379
3765.3318,100.372
3766.2959,100.374
3767.2603,100.387
3768.2244,100.414
3769.1887,100.458
3770.1528,100.507
3771.1172,100.543
3772.0813,100.547
3773.0457,100.524
3774.0098,100.49
3774.9741,100.457
3775.9382,100.427
3776.9026,100.394
3777.8667,100.361
3778.8311,100.335
3779.7952,100.314
3780.7595,100.283
3781.7236,100.236
3782.6880,100.186
3783.6521,100.154
3784.6165,100.159
3785.5806,100.205
3786.5449,100.279
3787.5090,100.353
3788.4734,100.409
3789.4375,100.44
3790.4019,100.453
3791.3660,100.45
3792.3303,100.426
3793.2944,100.367
3794.2588,100.269
3795.2229,100.15
3796.1873,100.047
3797.1514,99.9913
3798.1157,99.9868
3799.0798,100.007
3800.0442,100.021
3801.0083,100.021
3801.9727,100.013
3802.9368,100.015
3803.9011,100.05
3804.8652,100.135
3805.8296,100.259
3806.7937,100.376
3807.7581,100.425
3808.7222,100.382
3809.6865,100.288
3810.6506,100.219
3811.6150,100.225
3812.5791,100.293
3813.5435,100.354
3814.5076,100.337
3815.4719,100.227
3816.4360,100.065
3817.4004,99.9131
3818.3645,99.819
3819.3289,99.8073
3820.2930,99.8721
3821.2573,99.961
3822.2214,99.9984
3823.1858,99.9536
3824.1499,99.8657
3825.1143,99.7989
3826.0784,99.7938
3827.0427,99.8512
3828.0068,99.9415
3828.9712,100.025
3829.9353,100.074
3830.8997,100.083
3831.8638,100.065
3832.8281,100.039
3833.7922,100.012
3834.7566,99.9725
3835.7207,99.8999
3836.6851,99.7893
3837.6492,99.6728
3838.6135,99.6001
3839.5776,99.5965
3840.5420,99.654
3841.5061,99.7516
3842.4705,99.8642
3843.4346,99.9562
3844.3989,99.9906
3845.3630,99.9534
3846.3274,99.8736
3847.2915,99.8162
3848.2559,99.8496
3849.2200,100.006
3850.1843,100.255
3851.1484,100.509
3852.1128,100.702
3853.0769,100.834
3854.0413,100.847
3855.0054,100.653
3855.9697,100.321
3856.9338,100.01
3857.8982,99.8248
3858.8623,99.7758
3859.8267,99.806
3860.7908,99.8373
3861.7551,99.8242
3862.7192,99.7865
3863.6836,99.7797
3864.6477,99.8317
3865.6121,99.922
3866.5762,100.007
3867.5405,100.044
3868.5046,100.017
3869.4690,99.9431
3870.4331,99.8736
3871.3975,99.8497
3872.3616,99.8703
3873.3259,99.906
3874.2900,99.9345
3875.2544,99.9533
3876.2185,99.9678
3877.1829,99.976
3878.1470,99.9672
3879.1113,99.9362
3880.0754,99.8964
3881.0398,99.8753
3882.0039,99.8947
3882.9683,99.9565
3883.9324,100.041
3884.8967,100.115
3885.8608,100.147
3886.8252,100.125
3887.7893,100.065
3888.7537,99.9945
3889.7178,99.931
3890.6821,99.8834
3891.6462,99.8543
3892.6106,99.8349
3893.5747,99.8149
3894.5391,99.8027
3895.5032,99.8169
3896.4675,99.8603
3897.4316,99.9124
3898.3960,99.9471
3899.3601,99.9534
3900.3245,99.9368
3901.2886,99.9073
3902.2529,99.8776
3903.2170,99.8619
3904.1814,99.8644
3905.1455,99.8738
3906.1099,99.8784
3907.0740,99.8788
3908.0383,99.8814
3909.0024,99.8875
3909.9668,99.8917
3910.9309,99.8892
3911.8953,99.8814
3912.8594,99.8746
3913.8237,99.874
3914.7878,99.8795
3915.7522,99.8879
3916.7163,99.8961
3917.6807,99.8984
3918.6448,99.8847
3919.6091,99.8486
3920.5732,99.7953
3921.5376,99.7384
3922.5017,99.6908
3923.4661,99.6595
3924.4302,99.6419
3925.3945,99.6273
3926.3586,99.6059
3927.3230,99.5777
3928.2871,99.5514
3929.2515,99.5393
3930.2156,99.5528
3931.1799,99.5972
3932.1440,99.6638
3933.1084,99.73
3934.0725,99.7748
3935.0369,99.7925
3936.0010,99.7898
3936.9653,99.7753
3937.9294,99.7532
3938.8938,99.7234
3939.8579,99.6873
3940.8223,99.6519
3941.7864,99.6288
3942.7507,99.625
3943.7148,99.6363
3944.6792,99.651
3945.6433,99.6575
3946.6077,99.65
3947.5718,99.6307
3948.5361,99.6082
3949.5002,99.5926
3950.4646,99.5886
3951.4287,99.5948
3952.3931,99.6075
3953.3572,99.6237
3954.3215,99.6409
3955.2856,99.6556
3956.2500,99.6646
3957.2141,99.666
3958.1785,99.6614
3959.1426,99.6557
3960.1069,99.6557
3961.0710,99.666
3962.0354,99.6855
3962.9995,99.7067
3963.9639,99.72
3964.9280,99.7192
3965.8923,99.7039
3966.8564,99.679
3967.8208,99.6506
3968.7849,99.6234
3969.7493,99.5992
3970.7134,99.5783
3971.6777,99.5615
3972.6418,99.5509
3973.6062,99.5484
3974.5703,99.5539
3975.5347,99.5644
3976.4988,99.5753
3977.4631,99.5835
3978.4272,99.5885
3979.3916,99.5919
3980.3557,99.5953
3981.3201,99.599
3982.2842,99.6009
3983.2485,99.5978
3984.2126,99.5876
3985.1770,99.5707
3986.1411,99.5498
3987.1055,99.5287
3988.0696,99.5101
3989.0339,99.4942
3989.9980,99.4796
3990.9624,99.4659
3991.9265,99.455
3992.8909,99.451
3993.8550,99.4576
3994.8193,99.4742
3995.7834,99.4945
3996.7478,99.5093
3997.7119,99.5115
3998.6763,99.5031
3999.6404,99.4889
4000.6047,99.2887

##### Extended Information
[Comments]
Sample name
Comment
User
Division
Company,HANKYONG

[Detailed Information]
Creation date,4/24/2024 11:32 AM

Data array type,Linear data array
Horizontal axis,Wavenumber [cm-1]
Vertical axis,%T
Start,649.893 cm-1
End,4000.6 cm-1
Data interval,0.964233 cm-1
Data points,3476    

[Measurement Information]
Model Name,FT/IR-4700typeA
Serial Number,D056761788

Accessory,ATR PRO ONE
Accessory S/N,C174761809
Incident angle,45 deg

Measurement Date,4/24/2024 11:31 AM

Light Source,Standard
Detector,TGS
Accumulation,32
Resolution,4 cm-1
Zero Filling,On
Apodization,Cosine
Gain,Auto (4)
Aperture,Auto (7.1 mm)
Scanning Speed,Auto (2 mm/sec)
Filter,Auto (30000 Hz)

