TITLE,
DATA TYPE,INFRARED SPECTRUM
ORIGIN,JASCO
OWNER,
DATE,24/04/24
TIME,10:59:53
SPECTROMETER/DATA SYSTEM,
LOCALE,1033
RESOLUTION,
DELTAX,0.964233
XUNITS,1/CM
YUNITS,TRANSMITTANCE
FIRSTX,  649.8934
LASTX, 4000.6047
NPOINTS,    3476
FIRSTY,   100.46354
MAXY,   100.92430
MINY,    51.12120
XYDATA
649.8934,100.464
650.8576,100.341
651.8218,100.234
652.7861,100.165
653.7503,100.126
654.7145,100.093
655.6788,100.033
656.6430,99.918
657.6072,99.7398
658.5715,99.5268
659.5357,99.334
660.4999,99.2126
661.4642,99.1707
662.4284,99.1594
663.3926,99.0967
664.3569,98.8982
665.3211,98.4924
666.2853,97.8437
667.2496,97.0397
668.2138,96.3938
669.1780,96.2392
670.1423,96.5138
671.1065,96.9044
672.0707,97.2081
673.0350,97.3731
673.9992,97.4179
674.9634,97.3862
675.9277,97.3338
676.8919,97.3158
677.8561,97.3716
678.8204,97.5159
679.7846,97.7415
680.7488,98.0252
681.7131,98.3354
682.6773,98.6417
683.6415,98.9258
684.6058,99.1836
685.5700,99.4173
686.5342,99.6215
687.4985,99.7777
688.4627,99.8602
689.4269,99.8474
690.3912,99.7351
691.3554,99.555
692.3196,99.3961
693.2839,99.3847
694.2481,99.5855
695.2123,99.9319
696.1766,100.299
697.1408,100.599
698.1050,100.799
699.0693,100.901
700.0335,100.924
700.9977,100.892
701.9620,100.829
702.9262,100.757
703.8904,100.694
704.8547,100.655
705.8189,100.644
706.7831,100.653
707.7474,100.662
708.7116,100.654
709.6758,100.619
710.6401,100.566
711.6043,100.509
712.5685,100.454
713.5328,100.396
714.4970,100.313
715.4612,100.45
716.4255,100.23
717.3897,99.959
718.3539,99.6703
719.3182,99.4112
720.2824,99.2209
721.2466,99.1131
722.2109,99.1072
723.1751,99.1712
724.1393,99.2397
725.1036,99.2966
726.0678,99.3422
727.0320,99.389
727.9963,99.4546
728.9605,99.5524
729.9247,99.6848
730.8890,99.8412
731.8532,100.001
732.8174,100.142
733.7817,100.249
734.7459,100.316
735.7101,100.346
736.6744,100.344
737.6386,100.316
738.6028,100.267
739.5671,100.205
740.5313,100.141
741.4955,100.085
742.4598,100.044
743.4240,100.015
744.3882,99.9902
745.3525,99.9615
746.3167,99.9258
747.2809,99.8843
748.2452,99.8402
749.2094,99.7944
750.1736,99.745
751.1379,99.6885
752.1021,99.6212
753.0663,99.5403
754.0306,99.4443
754.9948,99.3334
755.9590,99.2116
756.9233,99.0875
757.8875,98.9738
758.8517,98.8843
759.8160,98.8307
760.7802,98.8185
761.7444,98.8446
762.7087,98.8955
763.6729,98.9501
764.6371,98.9851
765.6014,98.9847
766.5656,98.9487
767.5298,98.8936
768.4941,98.8452
769.4583,98.8246
770.4225,98.8367
771.3868,98.8684
772.3510,98.8958
773.3152,98.8972
774.2795,98.8615
775.2437,98.7894
776.2079,98.6886
777.1722,98.5695
778.1364,98.4422
779.1006,98.3165
780.0649,98.2024
781.0291,98.107
781.9933,98.0325
782.9576,97.9754
783.9218,97.9285
784.8860,97.884
785.8503,97.8347
786.8145,97.7735
787.7787,97.6936
788.7430,97.5907
789.7072,97.4663
790.6714,97.3294
791.6357,97.1934
792.5999,97.0687
793.5641,96.957
794.5284,96.8514
795.4926,96.7418
796.4568,96.6236
797.4211,96.5011
798.3853,96.3839
799.3495,96.2793
800.3138,96.1861
801.2780,96.0937
802.2422,95.9873
803.2065,95.8543
804.1707,95.6879
805.1349,95.4877
806.0992,95.258
807.0634,95.0057
808.0276,94.7392
808.9919,94.4678
809.9561,94.2008
810.9203,93.9468
811.8846,93.7127
812.8488,93.5045
813.8130,93.3275
814.7773,93.1855
815.7415,93.0795
816.7057,93.0064
817.6700,92.9591
818.6342,92.929
819.5984,92.9085
820.5627,92.8945
821.5269,92.8884
822.4911,92.8951
823.4554,92.9195
824.4196,92.9628
825.3839,93.0196
826.3481,93.0777
827.3123,93.1199
828.2766,93.1291
829.2408,93.0934
830.2050,93.0087
831.1693,92.8782
832.1335,92.7078
833.0977,92.5021
834.0620,92.2624
835.0262,91.988
835.9904,91.68
836.9547,91.3448
837.9189,90.993
838.8831,90.6365
839.8474,90.283
840.8116,89.935
841.7758,89.5906
842.7401,89.2491
843.7043,88.9157
844.6685,88.6023
845.6328,88.3243
846.5970,88.0943
847.5612,87.9162
848.5255,87.7843
849.4897,87.688
850.4539,87.6179
851.4182,87.5706
852.3824,87.5484
853.3466,87.5547
854.3109,87.5885
855.2751,87.6421
856.2393,87.7035
857.2036,87.7618
858.1678,87.8115
859.1320,87.8544
860.0963,87.8979
861.0605,87.9529
862.0247,88.0316
862.9890,88.1456
863.9532,88.3036
864.9174,88.5094
865.8817,88.7599
866.8459,89.0457
867.8101,89.3553
868.7744,89.6796
869.7386,90.0139
870.7028,90.3569
871.6671,90.7051
872.6313,91.0491
873.5955,91.372
874.5598,91.6551
875.5240,91.8844
876.4882,92.0568
877.4525,92.1805
878.4167,92.2711
879.3809,92.3446
880.3452,92.412
881.3094,92.4782
882.2736,92.5432
883.2379,92.6045
884.2021,92.6577
885.1663,92.696
886.1306,92.7108
887.0948,92.6942
888.0590,92.6444
889.0233,92.5683
889.9875,92.4808
890.9517,92.3975
891.9160,92.3274
892.8802,92.2682
893.8444,92.2084
894.8087,92.1348
895.7729,92.0387
896.7371,91.9179
897.7014,91.7744
898.6656,91.6096
899.6298,91.4226
900.5941,91.2117
901.5583,90.9784
902.5225,90.7301
903.4868,90.4781
904.4510,90.2342
905.4152,90.0054
906.3795,89.7923
907.3437,89.5898
908.3079,89.3912
909.2722,89.1923
910.2364,88.9948
911.2006,88.8061
912.1649,88.6377
913.1291,88.501
914.0933,88.4039
915.0576,88.35
916.0218,88.3388
916.9860,88.3685
917.9503,88.4375
918.9145,88.5448
919.8787,88.6903
920.8430,88.8737
921.8072,89.0952
922.7714,89.3554
923.7357,89.6548
924.6999,89.9921
925.6641,90.3635
926.6284,90.7635
927.5926,91.1881
928.5568,91.6377
929.5211,92.1189
930.4853,92.6429
931.4495,93.2197
932.4138,93.8542
933.3780,94.5414
934.3422,95.2663
935.3065,96.006
936.2707,96.7323
937.2349,97.4159
938.1992,98.0304
939.1634,98.556
940.1276,98.982
941.0919,99.3075
942.0561,99.5393
943.0203,99.7137
943.9846,99.8776
944.9488,99.9798
945.9130,100.027
946.8773,100.024
947.8415,99.9763
948.8057,99.8888
949.7700,99.7663
950.7342,99.6124
951.6984,99.4295
952.6627,99.2193
953.6269,98.9837
954.5911,98.724
955.5554,98.4396
956.5196,98.1267
957.4838,97.778
958.4481,97.3854
959.4123,96.9441
960.3765,96.4555
961.3408,95.9285
962.3050,95.377
963.2692,94.8162
964.2335,94.2594
965.1977,93.7162
966.1619,93.193
967.1262,92.6937
968.0904,92.2207
969.0546,91.7743
970.0189,91.3531
970.9831,90.9549
971.9473,90.5783
972.9116,90.2237
973.8758,89.8921
974.8400,89.5831
975.8043,89.2914
976.7685,89.0066
977.7327,88.715
978.6970,88.4035
979.6612,88.0629
980.6254,87.6883
981.5897,87.2783
982.5539,86.8318
983.5181,86.3479
984.4824,85.828
985.4466,85.2793
986.4108,84.717
987.3751,84.1632
988.3393,83.6433
989.3035,83.1796
990.2678,82.7875
991.2320,82.4721
992.1962,82.2295
993.1605,82.0492
994.1247,81.9174
995.0889,81.8208
996.0532,81.7483
997.0174,81.69
997.9816,81.6355
998.9459,81.571
999.9101,81.4796
1000.8743,81.3426
1001.8386,81.1432
1002.8028,80.8674
1003.7670,80.5048
1004.7313,80.0469
1005.6955,79.4869
1006.6597,78.8209
1007.6240,78.0484
1008.5882,77.1727
1009.5524,76.1993
1010.5167,75.1348
1011.4809,73.9868
1012.4451,72.7657
1013.4094,71.4859
1014.3736,70.1641
1015.3378,68.8167
1016.3021,67.4569
1017.2663,66.0959
1018.2305,64.7447
1019.1948,63.4149
1020.1590,62.1147
1021.1232,60.8438
1022.0875,59.5925
1023.0517,58.3503
1024.0160,57.1192
1024.9802,55.9255
1025.9445,54.8176
1026.9087,53.8503
1027.8729,53.0616
1028.8372,52.457
1029.8014,52.0101
1030.7656,51.6791
1031.7299,51.4285
1032.6941,51.244
1033.6583,51.1344
1034.6226,51.1212
1035.5868,51.2244
1036.5510,51.4508
1037.5153,51.7898
1038.4795,52.2161
1039.4437,52.6964
1040.4080,53.1987
1041.3722,53.6993
1042.3364,54.1876
1043.3007,54.6663
1044.2649,55.1474
1045.2291,55.6466
1046.1934,56.1782
1047.1576,56.7526
1048.1218,57.3761
1049.0861,58.0517
1050.0503,58.7776
1051.0145,59.546
1051.9788,60.3418
1052.9430,61.1462
1053.9072,61.9454
1054.8715,62.7393
1055.8357,63.5454
1056.7999,64.3906
1057.7642,65.2919
1058.7284,66.2345
1059.6926,67.1621
1060.6569,67.9909
1061.6211,68.6442
1062.5853,69.0938
1063.5496,69.3808
1064.5138,69.603
1065.4780,69.8691
1066.4423,70.245
1067.4065,70.7206
1068.3707,71.2168
1069.3350,71.6286
1070.2992,71.8766
1071.2634,71.9392
1072.2277,71.851
1073.1919,71.6732
1074.1561,71.4589
1075.1204,71.234
1076.0846,70.9996
1077.0488,70.7481
1078.0131,70.4783
1078.9773,70.2004
1079.9415,69.9304
1080.9058,69.6809
1081.8700,69.4559
1082.8342,69.2513
1083.7985,69.0597
1084.7627,68.8757
1085.7269,68.7
1086.6912,68.54
1087.6554,68.4083
1088.6196,68.3167
1089.5839,68.2693
1090.5481,68.2573
1091.5123,68.2589
1092.4766,68.2476
1093.4408,68.2018
1094.4050,68.1134
1095.3693,67.9875
1096.3335,67.836
1097.2977,67.6681
1098.2620,67.4848
1099.2262,67.2803
1100.1904,67.0474
1101.1547,66.7844
1102.1189,66.4973
1103.0831,66.1986
1104.0474,65.904
1105.0116,65.629
1105.9758,65.3889
1106.9401,65.1985
1107.9043,65.0745
1108.8685,65.0363
1109.8328,65.1054
1110.7970,65.3043
1111.7612,65.653
1112.7255,66.166
1113.6897,66.8493
1114.6539,67.7011
1115.6182,68.714
1116.5824,69.8781
1117.5466,71.1838
1118.5109,72.6209
1119.4751,74.1773
1120.4393,75.8359
1121.4036,77.5742
1122.3678,79.3652
1123.3320,81.1796
1124.2963,82.9893
1125.2605,84.769
1126.2247,86.4993
1127.1890,88.1664
1128.1532,89.7611
1129.1174,91.2758
1130.0817,92.7005
1131.0459,94.0214
1132.0101,95.2214
1132.9744,96.2844
1133.9386,97.1995
1134.9028,97.9629
1135.8671,98.5767
1136.8313,99.0472
1137.7955,99.382
1138.7598,99.5901
1139.7240,99.6827
1140.6882,99.6539
1141.6525,99.4665
1142.6167,99.2104
1143.5809,98.8998
1144.5452,98.5471
1145.5094,98.1645
1146.4736,97.7664
1147.4379,97.3698
1148.4021,96.9943
1149.3663,96.6597
1150.3306,96.3834
1151.2948,96.1771
1152.2590,96.0444
1153.2233,95.9797
1154.1875,95.9697
1155.1517,95.9973
1156.1160,96.0449
1157.0802,96.0968
1158.0444,96.139
1159.0087,96.1569
1159.9729,96.134
1160.9371,96.054
1161.9014,95.9044
1162.8656,95.6817
1163.8298,95.3921
1164.7941,95.0489
1165.7583,94.6661
1166.7225,94.253
1167.6868,93.8128
1168.6510,93.3438
1169.6152,92.8437
1170.5795,92.311
1171.5437,91.7458
1172.5079,91.1481
1173.4722,90.5178
1174.4364,89.8553
1175.4006,89.1647
1176.3649,88.454
1177.3291,87.7346
1178.2933,87.0173
1179.2576,86.3095
1180.2218,85.6143
1181.1860,84.932
1182.1503,84.2633
1183.1145,83.612
1184.0787,82.9852
1185.0430,82.3903
1186.0072,81.8318
1186.9714,81.3091
1187.9357,80.8168
1188.8999,80.347
1189.8641,79.893
1190.8284,79.4507
1191.7926,79.0194
1192.7568,78.5996
1193.7211,78.192
1194.6853,77.7956
1195.6495,77.4072
1196.6138,77.022
1197.5780,76.6347
1198.5422,76.241
1199.5065,75.8765
1200.4707,75.4634
1201.4349,75.0485
1202.3992,74.6394
1203.3634,74.244
1204.3276,73.8688
1205.2919,73.5185
1206.2561,73.1958
1207.2203,72.9028
1208.1846,72.6424
1209.1488,72.4188
1210.1130,72.2378
1211.0773,72.1039
1212.0415,72.0196
1213.0057,71.9836
1213.9700,71.9929
1214.9342,72.0443
1215.8984,72.1362
1216.8627,72.2689
1217.8269,72.4421
1218.7911,72.6522
1219.7554,72.8922
1220.7196,73.1524
1221.6838,73.4235
1222.6481,73.6978
1223.6123,73.9694
1224.5765,74.2329
1225.5408,74.4826
1226.5050,74.7119
1227.4692,74.9148
1228.4335,75.0872
1229.3977,75.2277
1230.3619,75.34
1231.3262,75.4339
1232.2904,75.5256
1233.2546,75.6338
1234.2189,75.7726
1235.1831,75.9449
1236.1473,76.1404
1237.1116,76.3422
1238.0758,76.5392
1239.0400,76.7359
1240.0043,76.9522
1240.9685,77.2115
1241.9327,77.523
1242.8970,77.8707
1243.8612,78.2167
1244.8254,78.519
1245.7897,78.7512
1246.7539,78.9132
1247.7181,79.0264
1248.6824,79.1179
1249.6466,79.2059
1250.6108,79.2924
1251.5751,79.3675
1252.5393,79.4184
1253.5035,79.4366
1254.4678,79.4208
1255.4320,79.3739
1256.3962,79.3003
1257.3605,79.2035
1258.3247,79.0866
1259.2889,78.9536
1260.2532,78.809
1261.2174,78.657
1262.1816,78.5005
1263.1459,78.3408
1264.1101,78.179
1265.0743,78.0175
1266.0386,77.8619
1267.0028,77.7203
1267.9670,77.6033
1268.9313,77.5224
1269.8955,77.4881
1270.8597,77.5082
1271.8240,77.5854
1272.7882,77.7171
1273.7524,77.8963
1274.7167,78.1144
1275.6809,78.3633
1276.6451,78.6374
1277.6094,78.9327
1278.5736,79.2464
1279.5378,79.5745
1280.5021,79.9117
1281.4663,80.2505
1282.4305,80.5839
1283.3948,80.9059
1284.3590,81.2139
1285.3232,81.5078
1286.2875,81.7899
1287.2517,82.0625
1288.2159,82.3266
1289.1802,82.5816
1290.1444,82.8254
1291.1086,83.0557
1292.0729,83.2712
1293.0371,83.4719
1294.0013,83.6587
1294.9656,83.8326
1295.9298,83.9945
1296.8940,84.1444
1297.8583,84.2816
1298.8225,84.4051
1299.7867,84.5136
1300.7510,84.6056
1301.7152,84.6789
1302.6794,84.7318
1303.6437,84.7638
1304.6079,84.7747
1305.5721,84.7654
1306.5364,84.7371
1307.5006,84.6905
1308.4648,84.626
1309.4291,84.5443
1310.3933,84.4475
1311.3575,84.3395
1312.3218,84.2251
1313.2860,84.1085
1314.2502,83.9908
1315.2145,83.8707
1316.1787,83.7466
1317.1429,83.6193
1318.1072,83.4931
1319.0714,83.3738
1320.0356,83.2647
1320.9999,83.1649
1321.9641,83.0703
1322.9283,82.978
1323.8926,82.889
1324.8568,82.8093
1325.8210,82.7485
1326.7853,82.7165
1327.7495,82.722
1328.7137,82.771
1329.6780,82.8673
1330.6422,83.0107
1331.6064,83.1947
1332.5707,83.4054
1333.5349,83.6246
1334.4991,83.8368
1335.4634,84.0381
1336.4276,84.2407
1337.3918,84.4716
1338.3561,84.7594
1339.3203,85.1083
1340.2845,85.4844
1341.2488,85.8348
1342.2130,86.1222
1343.1772,86.3381
1344.1415,86.4936
1345.1057,86.6047
1346.0699,86.6855
1347.0342,86.7461
1347.9984,86.7935
1348.9626,86.8303
1349.9269,86.8549
1350.8911,86.863
1351.8553,86.8512
1352.8196,86.8201
1353.7838,86.7747
1354.7480,86.7217
1355.7123,86.6643
1356.6765,86.6004
1357.6407,86.5249
1358.6050,86.4342
1359.5692,86.3307
1360.5334,86.227
1361.4977,86.1452
1362.4619,86.1018
1363.4261,86.0891
1364.3904,86.08
1365.3546,86.0526
1366.3188,86.0022
1367.2831,85.9357
1368.2473,85.8619
1369.2115,85.786
1370.1758,85.7094
1371.1400,85.6328
1372.1042,85.5612
1373.0685,85.5066
1374.0327,85.4828
1374.9969,85.4932
1375.9612,85.5243
1376.9254,85.5587
1377.8896,85.5909
1378.8539,85.627
1379.8181,85.6751
1380.7823,85.7363
1381.7466,85.8053
1382.7108,85.8781
1383.6750,85.9607
1384.6393,86.0687
1385.6035,86.2155
1386.5677,86.3905
1387.5320,86.5401
1388.4962,86.5888
1389.4604,86.4939
1390.4247,86.2707
1391.3889,85.9734
1392.3531,85.6711
1393.3174,85.438
1394.2816,85.3388
1395.2458,85.3919
1396.2101,85.5409
1397.1743,85.6802
1398.1385,85.7222
1399.1028,85.6386
1400.0670,85.452
1401.0313,85.2031
1401.9955,84.9259
1402.9597,84.6413
1403.9240,84.3617
1404.8882,84.0971
1405.8524,83.8547
1406.8167,83.6338
1407.7809,83.4272
1408.7451,83.2268
1409.7094,83.026
1410.6736,82.819
1411.6378,82.6014
1412.6021,82.3722
1413.5663,82.1346
1414.5305,81.892
1415.4948,81.6397
1416.4590,81.3645
1417.4232,81.0589
1418.3875,80.7376
1419.3517,80.4209
1420.3159,80.1096
1421.2802,79.7995
1422.2444,79.5045
1423.2086,79.2487
1424.1729,79.0506
1425.1371,78.9159
1426.1013,78.8441
1427.0656,78.8407
1428.0298,78.921
1428.9940,79.099
1429.9583,79.3647
1430.9225,79.6787
1431.8867,79.9985
1432.8510,80.3098
1433.8152,80.626
1434.7794,80.9634
1435.7437,81.3095
1436.7079,81.5974
1437.6721,81.7293
1438.6364,81.6563
1439.6006,81.4105
1440.5648,81.056
1441.5291,80.6384
1442.4933,80.1758
1443.4575,79.6706
1444.4218,79.1221
1445.3860,78.5328
1446.3502,77.9115
1447.3145,77.2788
1448.2787,76.6663
1449.2429,76.1047
1450.2072,75.6128
1451.1714,75.1986
1452.1356,74.8655
1453.0999,74.6087
1454.0641,74.4066
1455.0283,74.2317
1455.9926,74.1047
1456.9568,74.1184
1457.9210,74.2579
1458.8853,74.3415
1459.8495,74.2957
1460.8137,74.2026
1461.7780,74.1771
1462.7422,74.3244
1463.7064,74.7378
1464.6707,75.4483
1465.6349,76.3484
1466.5991,77.2523
1467.5634,78.0609
1468.5276,78.8084
1469.4918,79.5917
1470.4561,80.5132
1471.4203,81.6554
1472.3845,83.0226
1473.3488,84.4438
1474.3130,85.6413
1475.2772,86.4807
1476.2415,87.0214
1477.2057,87.3744
1478.1699,87.6162
1479.1342,87.787
1480.0984,87.9097
1481.0626,87.9993
1482.0269,88.0614
1482.9911,88.092
1483.9553,88.0824
1484.9196,88.0233
1485.8838,87.9039
1486.8480,87.7154
1487.8123,87.4761
1488.7765,87.25
1489.7407,87.0895
1490.7050,86.9617
1491.6692,86.8029
1492.6334,86.5938
1493.5977,86.3435
1494.5619,86.0526
1495.5261,85.713
1496.4904,85.338
1497.4546,84.9753
1498.4188,84.6551
1499.3831,84.3563
1500.3473,84.0609
1501.3115,83.7904
1502.2758,83.5727
1503.2400,83.3928
1504.2042,83.1465
1505.1685,82.6203
1506.1327,81.622
1507.0969,80.354
1508.0612,79.318
1509.0254,78.5897
1509.9896,77.9658
1510.9539,77.3554
1511.9181,76.7743
1512.8823,76.2865
1513.8466,75.9909
1514.8108,75.9988
1515.7750,76.3765
1516.7393,77.0991
1517.7035,78.0979
1518.6677,79.3694
1519.6320,81.0051
1520.5962,83.0495
1521.5604,85.3119
1522.5247,87.4281
1523.4889,89.1715
1524.4531,90.6013
1525.4174,91.9041
1526.3816,93.1753
1527.3458,94.3582
1528.3101,95.3468
1529.2743,96.1049
1530.2385,96.6884
1531.2028,97.2002
1532.1670,97.7275
1533.1312,98.2814
1534.0955,98.7857
1535.0597,99.1656
1536.0239,99.4261
1536.9882,99.6086
1537.9524,99.7033
1538.9166,99.636
1539.8809,99.4138
1540.8451,99.2902
1541.8093,99.4454
1542.7736,99.7065
1543.7378,99.9069
1544.7020,100.057
1545.6663,100.132
1546.6305,100.141
1547.5947,100.101
1548.5590,100.035
1549.5232,99.9622
1550.4874,99.8834
1551.4517,99.7885
1552.4159,99.6756
1553.3801,99.5658
1554.3444,99.4928
1555.3086,99.4688
1556.2728,99.4556
1557.2371,99.4043
1558.2013,99.3769
1559.1655,99.4229
1560.1298,99.3174
1561.0940,98.9422
1562.0582,98.4371
1563.0225,97.9574
1563.9867,97.574
1564.9509,97.2873
1565.9152,97.0547
1566.8794,96.8128
1567.8436,96.5057
1568.8079,96.1207
1569.7721,95.6966
1570.7363,95.287
1571.7006,94.9235
1572.6648,94.5993
1573.6290,94.26
1574.5933,93.8175
1575.5575,93.2231
1576.5217,92.5476
1577.4860,91.9128
1578.4502,91.3537
1579.4144,90.8352
1580.3787,90.3214
1581.3429,89.7904
1582.3071,89.234
1583.2714,88.662
1584.2356,88.0961
1585.1998,87.5529
1586.1641,87.0366
1587.1283,86.5463
1588.0925,86.0851
1589.0568,85.6604
1590.0210,85.2758
1590.9852,84.9266
1591.9495,84.603
1592.9137,84.2986
1593.8779,84.0145
1594.8422,83.7546
1595.8064,83.519
1596.7706,83.301
1597.7349,83.0925
1598.6991,82.8894
1599.6633,82.6952
1600.6276,82.5193
1601.5918,82.373
1602.5560,82.2631
1603.5203,82.1875
1604.4845,82.1359
1605.4487,82.0987
1606.4130,82.0761
1607.3772,82.083
1608.3414,82.1417
1609.3057,82.2624
1610.2699,82.4312
1611.2341,82.6258
1612.1984,82.8435
1613.1626,83.1128
1614.1268,83.4919
1615.0911,84.0555
1616.0553,84.8256
1617.0195,85.6664
1617.9838,86.3577
1618.9480,86.8194
1619.9122,87.1444
1620.8765,87.4671
1621.8407,87.8703
1622.8049,88.3565
1623.7692,88.857
1624.7334,89.2878
1625.6976,89.619
1626.6619,89.8809
1627.6261,90.112
1628.5903,90.3203
1629.5546,90.4939
1630.5188,90.634
1631.4830,90.7605
1632.4473,90.8839
1633.4115,90.9811
1634.3757,91.0187
1635.3400,91.0227
1636.3042,91.0583
1637.2684,91.1013
1638.2327,91.0838
1639.1969,91.0079
1640.1611,90.9201
1641.1254,90.8597
1642.0896,90.8399
1643.0538,90.84
1644.0181,90.8018
1644.9823,90.6564
1645.9465,90.4044
1646.9108,90.1546
1647.8750,90.0148
1648.8392,90.0118
1649.8035,90.13
1650.7677,90.3134
1651.7319,90.4484
1652.6962,90.4443
1653.6604,90.3237
1654.6246,90.0829
1655.5889,89.7078
1656.5531,89.2995
1657.5173,88.9685
1658.4816,88.7527
1659.4458,88.6245
1660.4100,88.527
1661.3743,88.418
1662.3385,88.2917
1663.3027,88.1594
1664.2670,88.0288
1665.2312,87.905
1666.1954,87.7852
1667.1597,87.6495
1668.1239,87.4781
1669.0881,87.2888
1670.0524,87.1346
1671.0166,87.0452
1671.9808,87.006
1672.9451,86.9924
1673.9093,86.9795
1674.8735,86.9305
1675.8378,86.8029
1676.8020,86.5804
1677.7662,86.2979
1678.7305,86.026
1679.6947,85.8255
1680.6589,85.7082
1681.6232,85.6275
1682.5874,85.5151
1683.5516,85.3531
1684.5159,85.1617
1685.4801,84.9124
1686.4443,84.5797
1687.4086,84.2003
1688.3728,83.83
1689.3370,83.5068
1690.3013,83.2453
1691.2655,83.0381
1692.2297,82.8548
1693.1940,82.6445
1694.1582,82.3524
1695.1224,81.9551
1696.0867,81.5006
1697.0509,81.1044
1698.0151,80.8644
1698.9794,80.7544
1699.9436,80.6337
1700.9078,80.3863
1701.8721,80.0175
1702.8363,79.618
1703.8005,79.2843
1704.7648,79.0724
1705.7290,78.9875
1706.6932,78.9909
1707.6575,79.0254
1708.6217,79.0524
1709.5859,79.0687
1710.5502,79.093
1711.5144,79.1417
1712.4786,79.2185
1713.4429,79.3213
1714.4071,79.4682
1715.3713,79.7338
1716.3356,80.2254
1717.2998,80.9124
1718.2640,81.5537
1719.2283,81.9648
1720.1925,82.1834
1721.1567,82.3457
1722.1210,82.5572
1723.0852,82.8538
1724.0494,83.2135
1725.0137,83.5856
1725.9779,83.9263
1726.9421,84.2203
1727.9064,84.4807
1728.8706,84.7357
1729.8348,85.0157
1730.7991,85.3521
1731.7633,85.7828
1732.7275,86.335
1733.6918,86.9503
1734.6560,87.4639
1735.6202,87.7657
1736.5845,87.9108
1737.5487,88.0313
1738.5129,88.2252
1739.4772,88.5177
1740.4414,88.8697
1741.4056,89.2127
1742.3699,89.4984
1743.3341,89.7258
1744.2983,89.9266
1745.2626,90.1334
1746.2268,90.3668
1747.1910,90.6457
1748.1553,91.0001
1749.1195,91.4498
1750.0837,91.95
1751.0480,92.3912
1752.0122,92.6928
1752.9764,92.8637
1753.9407,92.9685
1754.9049,93.0698
1755.8691,93.1991
1756.8334,93.3563
1757.7976,93.5265
1758.7618,93.6992
1759.7261,93.8773
1760.6903,94.0689
1761.6545,94.271
1762.6188,94.4645
1763.5830,94.6297
1764.5472,94.7659
1765.5115,94.8889
1766.4757,95.0141
1767.4399,95.1422
1768.4042,95.2616
1769.3684,95.3644
1770.3326,95.4695
1771.2969,95.6241
1772.2611,95.8571
1773.2253,96.1268
1774.1896,96.3568
1775.1538,96.518
1776.1180,96.6409
1777.0823,96.7707
1778.0465,96.9319
1779.0107,97.1224
1779.9750,97.3247
1780.9392,97.5217
1781.9034,97.7056
1782.8677,97.8751
1783.8319,98.0256
1784.7961,98.146
1785.7604,98.2276
1786.7246,98.2766
1787.6888,98.313
1788.6531,98.3554
1789.6173,98.4066
1790.5815,98.4585
1791.5458,98.5098
1792.5100,98.5631
1793.4742,98.6041
1794.4385,98.6165
1795.4027,98.612
1796.3669,98.6195
1797.3312,98.6573
1798.2954,98.7229
1799.2596,98.8025
1800.2239,98.8829
1801.1881,98.9548
1802.1523,99.0108
1803.1166,99.0473
1804.0808,99.067
1805.0450,99.0754
1806.0093,99.0768
1806.9735,99.0733
1807.9377,99.0675
1808.9020,99.066
1809.8662,99.0794
1810.8304,99.1134
1811.7947,99.1621
1812.7589,99.2124
1813.7231,99.2544
1814.6874,99.2852
1815.6516,99.3053
1816.6158,99.3155
1817.5801,99.3164
1818.5443,99.3104
1819.5085,99.3019
1820.4728,99.297
1821.4370,99.299
1822.4012,99.3059
1823.3655,99.3213
1824.3297,99.337
1825.2939,99.3362
1826.2582,99.3198
1827.2224,99.298
1828.1866,99.2885
1829.1509,99.3084
1830.1151,99.3576
1831.0793,99.4119
1832.0436,99.4431
1833.0078,99.4457
1833.9720,99.4347
1834.9363,99.426
1835.9005,99.4258
1836.8647,99.4317
1837.8290,99.4409
1838.7932,99.4565
1839.7574,99.4865
1840.7217,99.5339
1841.6859,99.5867
1842.6501,99.6242
1843.6144,99.6354
1844.5786,99.6254
1845.5428,99.602
1846.5071,99.5715
1847.4713,99.547
1848.4355,99.5434
1849.3998,99.5642
1850.3640,99.5992
1851.3282,99.6326
1852.2925,99.6534
1853.2567,99.6603
1854.2209,99.6583
1855.1852,99.6527
1856.1494,99.6466
1857.1136,99.6412
1858.0779,99.6382
1859.0421,99.64
1860.0063,99.6458
1860.9706,99.6503
1861.9348,99.6452
1862.8990,99.6247
1863.8633,99.5889
1864.8275,99.542
1865.7917,99.4916
1866.7560,99.4535
1867.7202,99.4547
1868.6844,99.5116
1869.6487,99.6017
1870.6129,99.6789
1871.5771,99.7182
1872.5414,99.7273
1873.5056,99.7257
1874.4698,99.7252
1875.4341,99.7277
1876.3983,99.7304
1877.3625,99.7311
1878.3268,99.7301
1879.2910,99.7286
1880.2552,99.7266
1881.2195,99.7225
1882.1837,99.7139
1883.1479,99.7005
1884.1122,99.685
1885.0764,99.6721
1886.0406,99.666
1887.0049,99.6683
1887.9691,99.6776
1888.9333,99.6897
1889.8976,99.6976
1890.8618,99.694
1891.8260,99.6773
1892.7903,99.6538
1893.7545,99.6342
1894.7188,99.6278
1895.6830,99.638
1896.6472,99.6601
1897.6115,99.6843
1898.5757,99.7014
1899.5399,99.7073
1900.5042,99.7031
1901.4684,99.6925
1902.4326,99.6788
1903.3969,99.6628
1904.3611,99.6432
1905.3253,99.6189
1906.2896,99.591
1907.2538,99.5651
1908.2180,99.5487
1909.1823,99.548
1910.1465,99.5612
1911.1107,99.5801
1912.0750,99.5962
1913.0392,99.6077
1914.0034,99.6176
1914.9677,99.6282
1915.9319,99.6375
1916.8961,99.6395
1917.8604,99.6275
1918.8246,99.5972
1919.7888,99.5522
1920.7531,99.5056
1921.7173,99.4739
1922.6815,99.4679
1923.6458,99.4862
1924.6100,99.5158
1925.5742,99.5414
1926.5385,99.5546
1927.5027,99.5559
1928.4669,99.5503
1929.4312,99.5423
1930.3954,99.5346
1931.3596,99.5278
1932.3239,99.5223
1933.2881,99.5191
1934.2523,99.5189
1935.2166,99.5207
1936.1808,99.5219
1937.1450,99.5198
1938.1093,99.5124
1939.0735,99.499
1940.0377,99.4802
1941.0020,99.4589
1941.9662,99.4412
1942.9304,99.4331
1943.8947,99.4357
1944.8589,99.446
1945.8231,99.4615
1946.7874,99.4809
1947.7516,99.5024
1948.7158,99.522
1949.6801,99.535
1950.6443,99.539
1951.6085,99.5351
1952.5728,99.528
1953.5370,99.5229
1954.5012,99.5234
1955.4655,99.53
1956.4297,99.5406
1957.3939,99.5526
1958.3582,99.5639
1959.3224,99.5728
1960.2866,99.5777
1961.2509,99.5768
1962.2151,99.5689
1963.1793,99.555
1964.1436,99.5386
1965.1078,99.5263
1966.0720,99.5249
1967.0363,99.5385
1968.0005,99.5645
1968.9647,99.5954
1969.9290,99.6229
1970.8932,99.6426
1971.8574,99.6537
1972.8217,99.6581
1973.7859,99.6577
1974.7501,99.6546
1975.7144,99.6503
1976.6786,99.6463
1977.6428,99.6435
1978.6071,99.6423
1979.5713,99.6425
1980.5355,99.6432
1981.4998,99.643
1982.4640,99.6413
1983.4282,99.6375
1984.3925,99.6318
1985.3567,99.6241
1986.3209,99.6149
1987.2852,99.6045
1988.2494,99.5938
1989.2136,99.5845
1990.1779,99.5795
1991.1421,99.5817
1992.1063,99.5918
1993.0706,99.607
1994.0348,99.6222
1994.9990,99.6334
1995.9633,99.6394
1996.9275,99.6411
1997.8917,99.6404
1998.8560,99.6388
1999.8202,99.6373
2000.7844,99.6357
2001.7487,99.6333
2002.7129,99.6294
2003.6771,99.6233
2004.6414,99.6152
2005.6056,99.606
2006.5698,99.5972
2007.5341,99.5905
2008.4983,99.5871
2009.4625,99.587
2010.4268,99.5885
2011.3910,99.5885
2012.3552,99.5839
2013.3195,99.573
2014.2837,99.5566
2015.2479,99.5383
2016.2122,99.5231
2017.1764,99.515
2018.1406,99.5145
2019.1049,99.519
2020.0691,99.5246
2021.0333,99.5287
2021.9976,99.5309
2022.9618,99.5315
2023.9260,99.5313
2024.8903,99.5306
2025.8545,99.5294
2026.8187,99.5276
2027.7830,99.5254
2028.7472,99.5227
2029.7114,99.5192
2030.6757,99.5142
2031.6399,99.5076
2032.6041,99.5004
2033.5684,99.4943
2034.5326,99.4907
2035.4968,99.4892
2036.4611,99.4878
2037.4253,99.484
2038.3895,99.4761
2039.3538,99.4652
2040.3180,99.4542
2041.2822,99.4465
2042.2465,99.4435
2043.2107,99.4441
2044.1749,99.4455
2045.1392,99.4452
2046.1034,99.442
2047.0676,99.4363
2048.0320,99.4295
2048.9961,99.4228
2049.9604,99.417
2050.9246,99.4124
2051.8889,99.4089
2052.8530,99.4058
2053.8174,99.4025
2054.7815,99.3984
2055.7458,99.3936
2056.7100,99.3883
2057.6743,99.3828
2058.6384,99.3769
2059.6028,99.3696
2060.5669,99.3602
2061.5313,99.3492
2062.4954,99.3388
2063.4597,99.3321
2064.4238,99.3318
2065.3882,99.3383
2066.3523,99.3498
2067.3167,99.3629
2068.2808,99.3746
2069.2451,99.3832
2070.2092,99.3886
2071.1736,99.3916
2072.1377,99.3932
2073.1021,99.3943
2074.0662,99.3955
2075.0305,99.3968
2075.9946,99.3979
2076.9590,99.3984
2077.9231,99.3979
2078.8875,99.3965
2079.8516,99.3946
2080.8159,99.3932
2081.7800,99.3928
2082.7444,99.3933
2083.7085,99.3945
2084.6729,99.3959
2085.6370,99.3973
2086.6013,99.3987
2087.5654,99.4003
2088.5298,99.4021
2089.4939,99.4039
2090.4583,99.4052
2091.4224,99.4061
2092.3867,99.4066
2093.3508,99.4074
2094.3152,99.4091
2095.2793,99.4119
2096.2437,99.4154
2097.2078,99.4186
2098.1721,99.4205
2099.1362,99.4202
2100.1006,99.417
2101.0647,99.4142
2102.0291,99.4119
2102.9932,99.4109
2103.9575,99.4111
2104.9216,99.4111
2105.8860,99.4094
2106.8501,99.4049
2107.8145,99.3978
2108.7786,99.3892
2109.7429,99.381
2110.7070,99.375
2111.6714,99.3721
2112.6355,99.3728
2113.5999,99.3764
2114.5640,99.382
2115.5283,99.3878
2116.4924,99.3923
2117.4568,99.3945
2118.4209,99.394
2119.3853,99.3917
2120.3494,99.3889
2121.3137,99.3871
2122.2778,99.3866
2123.2422,99.387
2124.2063,99.3874
2125.1707,99.3874
2126.1348,99.3873
2127.0991,99.3884
2128.0632,99.3919
2129.0276,99.3975
2129.9917,99.4035
2130.9561,99.4076
2131.9202,99.4076
2132.8845,99.4036
2133.8486,99.3977
2134.8130,99.3929
2135.7771,99.3922
2136.7415,99.3965
2137.7056,99.4046
2138.6699,99.4141
2139.6340,99.4224
2140.5984,99.428
2141.5625,99.4312
2142.5269,99.433
2143.4910,99.4352
2144.4553,99.4387
2145.4194,99.4438
2146.3838,99.4501
2147.3479,99.4563
2148.3123,99.4616
2149.2764,99.4653
2150.2407,99.4672
2151.2048,99.4677
2152.1692,99.4678
2153.1333,99.4682
2154.0977,99.4694
2155.0618,99.4718
2156.0261,99.4755
2156.9902,99.4808
2157.9546,99.488
2158.9187,99.4971
2159.8831,99.5077
2160.8472,99.5183
2161.8115,99.527
2162.7756,99.5324
2163.7400,99.5341
2164.7041,99.5333
2165.6685,99.5318
2166.6326,99.5313
2167.5969,99.5326
2168.5610,99.5353
2169.5254,99.5384
2170.4895,99.5412
2171.4539,99.5438
2172.4180,99.5466
2173.3823,99.5501
2174.3464,99.5548
2175.3108,99.5605
2176.2749,99.567
2177.2393,99.5736
2178.2034,99.5795
2179.1677,99.584
2180.1318,99.5863
2181.0962,99.5859
2182.0603,99.5834
2183.0247,99.5796
2183.9888,99.5759
2184.9531,99.5736
2185.9172,99.5734
2186.8816,99.5758
2187.8457,99.5807
2188.8101,99.5878
2189.7742,99.5961
2190.7385,99.6044
2191.7026,99.6113
2192.6670,99.6154
2193.6311,99.6162
2194.5955,99.6141
2195.5596,99.6106
2196.5239,99.6067
2197.4880,99.6032
2198.4524,99.6001
2199.4165,99.5968
2200.3809,99.5932
2201.3450,99.5897
2202.3093,99.5869
2203.2734,99.5855
2204.2378,99.5857
2205.2019,99.5872
2206.1663,99.5897
2207.1304,99.5931
2208.0947,99.597
2209.0588,99.6006
2210.0232,99.6026
2210.9873,99.6019
2211.9517,99.5981
2212.9158,99.5922
2213.8801,99.5864
2214.8442,99.5825
2215.8086,99.5811
2216.7727,99.5813
2217.7371,99.5812
2218.7012,99.5794
2219.6655,99.5753
2220.6296,99.5698
2221.5940,99.5642
2222.5581,99.5598
2223.5225,99.5569
2224.4866,99.5554
2225.4509,99.5544
2226.4150,99.5527
2227.3794,99.5496
2228.3435,99.5443
2229.3079,99.5367
2230.2720,99.5274
2231.2363,99.5177
2232.2004,99.5089
2233.1648,99.5018
2234.1289,99.4968
2235.0933,99.4932
2236.0574,99.4902
2237.0217,99.4868
2237.9858,99.4819
2238.9502,99.4754
2239.9143,99.4674
2240.8787,99.4589
2241.8428,99.4509
2242.8071,99.4441
2243.7712,99.4381
2244.7356,99.432
2245.6997,99.4244
2246.6641,99.4148
2247.6282,99.4031
2248.5925,99.3902
2249.5566,99.3769
2250.5210,99.3642
2251.4851,99.3525
2252.4495,99.3425
2253.4136,99.3346
2254.3779,99.3284
2255.3420,99.323
2256.3064,99.3167
2257.2705,99.3078
2258.2349,99.2958
2259.1990,99.2819
2260.1633,99.2677
2261.1274,99.2551
2262.0918,99.2451
2263.0559,99.237
2264.0203,99.2299
2264.9844,99.2225
2265.9487,99.214
2266.9128,99.2037
2267.8772,99.1914
2268.8413,99.1776
2269.8057,99.1639
2270.7698,99.1527
2271.7341,99.1463
2272.6982,99.1456
2273.6626,99.1497
2274.6267,99.1566
2275.5911,99.1642
2276.5552,99.1719
2277.5195,99.1802
2278.4836,99.1896
2279.4480,99.1993
2280.4121,99.2066
2281.3765,99.2082
2282.3406,99.2016
2283.3049,99.1862
2284.2690,99.1634
2285.2334,99.1356
2286.1975,99.1055
2287.1619,99.0748
2288.1260,99.0443
2289.0903,99.0136
2290.0544,98.9828
2291.0188,98.9523
2291.9829,98.9237
2292.9473,98.8993
2293.9114,98.8808
2294.8757,98.869
2295.8398,98.8637
2296.8042,98.8644
2297.7683,98.8713
2298.7327,98.8857
2299.6968,98.9088
2300.6611,98.9405
2301.6252,98.9777
2302.5896,99.0149
2303.5537,99.0453
2304.5181,99.0635
2305.4822,99.0684
2306.4465,99.0645
2307.4106,99.0616
2308.3750,99.0718
2309.3391,99.1041
2310.3035,99.161
2311.2676,99.2357
2312.2319,99.3158
2313.1960,99.3884
2314.1604,99.4465
2315.1245,99.4922
2316.0889,99.5337
2317.0530,99.5802
2318.0173,99.6348
2318.9814,99.6894
2319.9458,99.724
2320.9099,99.7111
2321.8743,99.6274
2322.8384,99.4692
2323.8027,99.2605
2324.7668,99.0486
2325.7312,98.8863
2326.6953,98.8113
2327.6597,98.8295
2328.6238,98.911
2329.5881,98.9999
2330.5522,99.0383
2331.5166,98.9946
2332.4807,98.8775
2333.4451,98.7271
2334.4092,98.5896
2335.3735,98.4928
2336.3376,98.4352
2337.3020,98.392
2338.2661,98.3315
2339.2305,98.2372
2340.1946,98.1242
2341.1589,98.0479
2342.1230,98.0891
2343.0874,98.2935
2344.0515,98.5818
2345.0159,98.7718
2345.9800,98.7481
2346.9443,98.5612
2347.9084,98.3539
2348.8728,98.2472
2349.8369,98.2804
2350.8013,98.4049
2351.7654,98.5148
2352.7297,98.5112
2353.6938,98.3727
2354.6582,98.169
2355.6223,97.9559
2356.5867,97.731
2357.5508,97.485
2358.5151,97.2495
2359.4792,97.0884
2360.4436,97.043
2361.4077,97.1079
2362.3721,97.2586
2363.3362,97.481
2364.3005,97.7682
2365.2646,98.1027
2366.2290,98.4537
2367.1931,98.7908
2368.1575,99.095
2369.1216,99.3595
2370.0859,99.5827
2371.0500,99.7641
2372.0144,99.9025
2372.9785,99.9965
2373.9429,100.043
2374.9070,100.04
2375.8713,99.986
2376.8354,99.8864
2377.7998,99.7526
2378.7639,99.6015
2379.7283,99.4521
2380.6924,99.3212
2381.6567,99.2197
2382.6208,99.1516
2383.5852,99.1142
2384.5493,99.1006
2385.5137,99.1024
2386.4778,99.1123
2387.4421,99.1248
2388.4063,99.1367
2389.3706,99.1463
2390.3347,99.1533
2391.2991,99.1582
2392.2632,99.1626
2393.2275,99.1682
2394.1917,99.1761
2395.1560,99.1863
2396.1201,99.1976
2397.0845,99.2084
2398.0486,99.2176
2399.0129,99.2247
2399.9771,99.2302
2400.9414,99.2338
2401.9055,99.2353
2402.8699,99.2348
2403.8340,99.2334
2404.7983,99.233
2405.7625,99.236
2406.7268,99.2428
2407.6909,99.2518
2408.6553,99.2604
2409.6194,99.2662
2410.5837,99.2693
2411.5479,99.2718
2412.5122,99.2764
2413.4763,99.2843
2414.4407,99.294
2415.4048,99.3025
2416.3691,99.3077
2417.3333,99.3099
2418.2976,99.3113
2419.2617,99.3144
2420.2261,99.3196
2421.1902,99.3252
2422.1545,99.3287
2423.1187,99.3289
2424.0830,99.3274
2425.0471,99.3275
2426.0115,99.3319
2426.9756,99.341
2427.9399,99.3522
2428.9041,99.3623
2429.8684,99.3692
2430.8325,99.3732
2431.7969,99.3768
2432.7610,99.3821
2433.7253,99.3898
2434.6895,99.3983
2435.6538,99.4056
2436.6179,99.4099
2437.5823,99.4117
2438.5464,99.4125
2439.5107,99.4145
2440.4749,99.419
2441.4392,99.4261
2442.4033,99.4349
2443.3677,99.4443
2444.3318,99.4531
2445.2961,99.4606
2446.2603,99.4659
2447.2246,99.4681
2448.1887,99.4673
2449.1531,99.4643
2450.1172,99.4615
2451.0815,99.4617
2452.0457,99.4662
2453.0100,99.4745
2453.9741,99.4835
2454.9385,99.4894
2455.9026,99.49
2456.8669,99.4854
2457.8311,99.4781
2458.7954,99.4718
2459.7595,99.4688
2460.7239,99.4694
2461.6880,99.4724
2462.6523,99.4766
2463.6165,99.4814
2464.5808,99.4872
2465.5449,99.4941
2466.5093,99.5011
2467.4734,99.5057
2468.4377,99.506
2469.4019,99.5015
2470.3662,99.4944
2471.3303,99.4883
2472.2947,99.4863
2473.2588,99.4896
2474.2231,99.4963
2475.1873,99.5032
2476.1516,99.5076
2477.1157,99.5087
2478.0801,99.5082
2479.0442,99.5084
2480.0085,99.511
2480.9727,99.5154
2481.9370,99.5198
2482.9011,99.5219
2483.8655,99.5206
2484.8296,99.5169
2485.7939,99.513
2486.7581,99.5115
2487.7224,99.5135
2488.6865,99.5185
2489.6509,99.525
2490.6150,99.5311
2491.5793,99.5357
2492.5435,99.539
2493.5078,99.5424
2494.4719,99.5472
2495.4363,99.5543
2496.4004,99.5634
2497.3647,99.573
2498.3289,99.5812
2499.2932,99.5862
2500.2573,99.5872
2501.2217,99.5849
2502.1858,99.5811
2503.1501,99.5781
2504.1143,99.5773
2505.0786,99.5789
2506.0427,99.582
2507.0071,99.5853
2507.9712,99.5879
2508.9355,99.59
2509.8997,99.5924
2510.8640,99.5959
2511.8281,99.6012
2512.7925,99.6086
2513.7566,99.6182
2514.7209,99.6301
2515.6851,99.6439
2516.6494,99.6581
2517.6135,99.6706
2518.5779,99.6792
2519.5420,99.6824
2520.5063,99.6805
2521.4705,99.6756
2522.4348,99.6703
2523.3989,99.6665
2524.3633,99.6653
2525.3274,99.6667
2526.2917,99.6703
2527.2559,99.6758
2528.2202,99.683
2529.1843,99.6919
2530.1487,99.7015
2531.1128,99.7107
2532.0771,99.7181
2533.0413,99.7228
2534.0056,99.7247
2534.9697,99.7245
2535.9341,99.7235
2536.8982,99.7234
2537.8625,99.7257
2538.8267,99.7306
2539.7910,99.7373
2540.7551,99.7439
2541.7195,99.7487
2542.6836,99.7515
2543.6479,99.7537
2544.6121,99.7578
2545.5764,99.7652
2546.5405,99.7754
2547.5049,99.786
2548.4690,99.7942
2549.4333,99.7988
2550.3975,99.8009
2551.3618,99.8034
2552.3259,99.8088
2553.2903,99.8175
2554.2544,99.8278
2555.2188,99.8371
2556.1829,99.844
2557.1472,99.8493
2558.1113,99.8546
2559.0757,99.8615
2560.0398,99.8691
2561.0042,99.8755
2561.9683,99.8787
2562.9326,99.8789
2563.8967,99.8789
2564.8611,99.8826
2565.8252,99.8927
2566.7896,99.9084
2567.7537,99.9262
2568.7180,99.9411
2569.6821,99.9497
2570.6465,99.951
2571.6106,99.9466
2572.5750,99.9393
2573.5391,99.9317
2574.5034,99.9253
2575.4675,99.9207
2576.4319,99.918
2577.3960,99.9178
2578.3604,99.9208
2579.3245,99.9276
2580.2888,99.938
2581.2529,99.9506
2582.2173,99.9635
2583.1814,99.9742
2584.1458,99.9806
2585.1099,99.982
2586.0742,99.9789
2587.0383,99.9731
2588.0027,99.967
2588.9668,99.9628
2589.9312,99.9614
2590.8953,99.9628
2591.8596,99.9658
2592.8237,99.9689
2593.7881,99.971
2594.7522,99.9715
2595.7166,99.9706
2596.6807,99.9692
2597.6450,99.969
2598.6091,99.9711
2599.5735,99.9761
2600.5376,99.9834
2601.5020,99.9915
2602.4661,99.9984
2603.4304,100.003
2604.3945,100.004
2605.3589,100.005
2606.3230,100.005
2607.2874,100.005
2608.2515,100.007
2609.2158,100.009
2610.1799,100.011
2611.1443,100.014
2612.1084,100.019
2613.0728,100.025
2614.0369,100.032
2615.0012,100.04
2615.9653,100.046
2616.9297,100.05
2617.8938,100.052
2618.8582,100.054
2619.8223,100.056
2620.7866,100.058
2621.7507,100.06
2622.7151,100.062
2623.6792,100.064
2624.6436,100.064
2625.6077,100.063
2626.5720,100.062
2627.5361,100.059
2628.5005,100.058
2629.4646,100.058
2630.4290,100.059
2631.3931,100.062
2632.3574,100.065
2633.3215,100.067
2634.2859,100.068
2635.2500,100.07
2636.2144,100.07
2637.1785,100.071
2638.1428,100.071
2639.1069,100.072
2640.0713,100.074
2641.0354,100.081
2641.9998,100.093
2642.9639,100.109
2643.9282,100.125
2644.8923,100.138
2645.8567,100.147
2646.8208,100.15
2647.7852,100.151
2648.7493,100.149
2649.7136,100.147
2650.6777,100.145
2651.6421,100.143
2652.6062,100.142
2653.5706,100.146
2654.5347,100.155
2655.4990,100.169
2656.4631,100.185
2657.4275,100.201
2658.3916,100.212
2659.3560,100.218
2660.3201,100.22
2661.2844,100.222
2662.2485,100.227
2663.2129,100.236
2664.1770,100.251
2665.1414,100.269
2666.1055,100.288
2667.0698,100.306
2668.0339,100.324
2668.9983,100.341
2669.9624,100.357
2670.9268,100.372
2671.8909,100.386
2672.8552,100.399
2673.8193,100.411
2674.7837,100.425
2675.7478,100.439
2676.7122,100.45
2677.6763,100.457
2678.6406,100.457
2679.6047,100.451
2680.5691,100.442
2681.5332,100.436
2682.4976,100.435
2683.4617,100.441
2684.4260,100.451
2685.3901,100.462
2686.3545,100.472
2687.3186,100.478
2688.2830,100.482
2689.2471,100.486
2690.2114,100.49
2691.1755,100.494
2692.1399,100.498
2693.1040,100.503
2694.0684,100.508
2695.0325,100.512
2695.9968,100.514
2696.9609,100.514
2697.9253,100.512
2698.8894,100.51
2699.8538,100.508
2700.8179,100.509
2701.7822,100.512
2702.7463,100.515
2703.7107,100.518
2704.6748,100.519
2705.6392,100.516
2706.6033,100.509
2707.5676,100.498
2708.5317,100.485
2709.4961,100.473
2710.4602,100.463
2711.4246,100.456
2712.3887,100.448
2713.3530,100.438
2714.3171,100.424
2715.2815,100.406
2716.2456,100.387
2717.2100,100.373
2718.1741,100.368
2719.1384,100.37
2720.1025,100.378
2721.0669,100.386
2722.0310,100.39
2722.9954,100.388
2723.9595,100.378
2724.9238,100.363
2725.8879,100.345
2726.8523,100.326
2727.8164,100.309
2728.7808,100.296
2729.7449,100.286
2730.7092,100.28
2731.6733,100.275
2732.6377,100.271
2733.6018,100.265
2734.5662,100.257
2735.5303,100.247
2736.4946,100.235
2737.4587,100.222
2738.4231,100.211
2739.3872,100.203
2740.3516,100.2
2741.3157,100.202
2742.2800,100.21
2743.2441,100.221
2744.2085,100.233
2745.1726,100.244
2746.1370,100.249
2747.1011,100.247
2748.0654,100.238
2749.0295,100.225
2749.9939,100.211
2750.9580,100.201
2751.9224,100.196
2752.8865,100.195
2753.8508,100.196
2754.8149,100.194
2755.7793,100.188
2756.7434,100.176
2757.7078,100.161
2758.6719,100.143
2759.6362,100.127
2760.6003,100.112
2761.5647,100.101
2762.5288,100.094
2763.4932,100.089
2764.4573,100.085
2765.4216,100.081
2766.3857,100.075
2767.3501,100.065
2768.3142,100.054
2769.2786,100.042
2770.2427,100.03
2771.2070,100.016
2772.1711,99.9978
2773.1355,99.9743
2774.0996,99.9459
2775.0640,99.9151
2776.0281,99.8846
2776.9924,99.8561
2777.9565,99.829
2778.9209,99.8007
2779.8850,99.7682
2780.8494,99.7306
2781.8135,99.6896
2782.7778,99.6489
2783.7419,99.6124
2784.7063,99.5821
2785.6704,99.5567
2786.6348,99.533
2787.5989,99.5068
2788.5632,99.4749
2789.5273,99.4364
2790.4917,99.3924
2791.4558,99.3454
2792.4202,99.2979
2793.3843,99.2513
2794.3486,99.2058
2795.3127,99.1602
2796.2771,99.1129
2797.2412,99.0625
2798.2056,99.0082
2799.1697,98.9487
2800.1340,98.8875
2801.0981,98.8261
2802.0625,98.7656
2803.0266,98.7067
2803.9910,98.6496
2804.9551,98.5935
2805.9194,98.5365
2806.8835,98.4753
2807.8479,98.4068
2808.8120,98.3285
2809.7764,98.2402
2810.7405,98.144
2811.7048,98.043
2812.6689,97.94
2813.6333,97.8361
2814.5974,97.7303
2815.5618,97.6203
2816.5259,97.5039
2817.4902,97.3788
2818.4543,97.2436
2819.4187,97.0971
2820.3828,96.9379
2821.3472,96.7651
2822.3113,96.5782
2823.2756,96.3772
2824.2397,96.1627
2825.2041,95.935
2826.1682,95.6939
2827.1326,95.439
2828.0967,95.1694
2829.0610,94.8848
2830.0251,94.5858
2830.9895,94.2743
2831.9536,93.9538
2832.9180,93.6285
2833.8821,93.3027
2834.8464,92.9798
2835.8105,92.662
2836.7749,92.3501
2837.7390,92.0447
2838.7034,91.7468
2839.6675,91.4582
2840.6318,91.1802
2841.5959,90.9125
2842.5603,90.6521
2843.5244,90.3945
2844.4888,90.1357
2845.4529,89.8755
2846.4172,89.6192
2847.3813,89.3761
2848.3457,89.1565
2849.3098,88.9661
2850.2742,88.804
2851.2383,88.6629
2852.2026,88.5332
2853.1667,88.4073
2854.1311,88.2823
2855.0952,88.1594
2856.0596,88.0406
2857.0237,87.9254
2857.9880,87.81
2858.9521,87.6882
2859.9165,87.5543
2860.8806,87.4054
2861.8450,87.2423
2862.8091,87.0688
2863.7734,86.8904
2864.7375,86.7129
2865.7019,86.5413
2866.6660,86.3786
2867.6304,86.2256
2868.5945,86.0804
2869.5588,85.9398
2870.5229,85.8001
2871.4873,85.6589
2872.4514,85.5155
2873.4158,85.3712
2874.3799,85.2279
2875.3442,85.0875
2876.3083,84.9498
2877.2727,84.813
2878.2368,84.674
2879.2012,84.5315
2880.1653,84.3879
2881.1296,84.2508
2882.0938,84.1315
2883.0581,84.041
2884.0222,83.9857
2884.9866,83.9642
2885.9507,83.9677
2886.9150,83.9825
2887.8792,83.9944
2888.8435,83.9936
2889.8076,83.9776
2890.7720,83.9522
2891.7361,83.9273
2892.7004,83.9091
2893.6646,83.8928
2894.6289,83.8599
2895.5930,83.7847
2896.5574,83.649
2897.5215,83.4558
2898.4858,83.2341
2899.4500,83.029
2900.4143,82.8819
2901.3784,82.811
2902.3428,82.8045
2903.3069,82.8287
2904.2712,82.8453
2905.2354,82.8275
2906.1997,82.7661
2907.1638,82.666
2908.1282,82.5379
2909.0923,82.3922
2910.0566,82.237
2911.0208,82.0786
2911.9851,81.9217
2912.9492,81.7689
2913.9136,81.6199
2914.8777,81.4719
2915.8420,81.3219
2916.8062,81.1687
2917.7705,81.0131
2918.7346,80.8566
2919.6990,80.7005
2920.6631,80.5457
2921.6274,80.3933
2922.5916,80.2455
2923.5559,80.105
2924.5200,79.974
2925.4844,79.8533
2926.4485,79.7425
2927.4128,79.6414
2928.3770,79.5508
2929.3413,79.4724
2930.3054,79.4091
2931.2698,79.3638
2932.2339,79.3404
2933.1982,79.3435
2934.1624,79.3782
2935.1267,79.4486
2936.0908,79.5562
2937.0552,79.6989
2938.0193,79.8713
2938.9836,80.0673
2939.9478,80.282
2940.9121,80.5135
2941.8762,80.7628
2942.8406,81.0305
2943.8047,81.3148
2944.7690,81.6087
2945.7332,81.9014
2946.6975,82.1812
2947.6616,82.4395
2948.6260,82.6729
2949.5901,82.8834
2950.5544,83.0756
2951.5186,83.2542
2952.4829,83.4221
2953.4470,83.5805
2954.4114,83.7303
2955.3755,83.8735
2956.3398,84.0131
2957.3040,84.1521
2958.2683,84.2913
2959.2324,84.4293
2960.1968,84.5617
2961.1609,84.6835
2962.1252,84.7909
2963.0894,84.8834
2964.0537,84.9639
2965.0178,85.0377
2965.9822,85.1106
2966.9463,85.188
2967.9106,85.2749
2968.8748,85.3769
2969.8391,85.5007
2970.8032,85.6526
2971.7676,85.8357
2972.7317,86.0476
2973.6960,86.2801
2974.6602,86.5225
2975.6245,86.7659
2976.5886,87.0059
2977.5530,87.2432
2978.5171,87.4809
2979.4814,87.7204
2980.4456,87.9577
2981.4099,88.1816
2982.3740,88.3769
2983.3384,88.5299
2984.3025,88.6387
2985.2668,88.7204
2986.2310,88.812
2987.1953,88.9604
2988.1594,89.2023
2989.1238,89.5466
2990.0879,89.9662
2991.0522,90.4083
2992.0164,90.8167
2992.9807,91.1551
2993.9448,91.4188
2994.9092,91.6297
2995.8733,91.8204
2996.8376,92.0167
2997.8018,92.2295
2998.7661,92.4571
2999.7302,92.693
3000.6946,92.9335
3001.6587,93.1792
3002.6230,93.4331
3003.5872,93.6973
3004.5515,93.9708
3005.5156,94.2498
3006.4800,94.5285
3007.4441,94.801
3008.4084,95.0636
3009.3726,95.3159
3010.3369,95.5618
3011.3010,95.8072
3012.2654,96.057
3013.2295,96.3113
3014.1938,96.5644
3015.1580,96.8076
3016.1223,97.0334
3017.0864,97.2389
3018.0508,97.4266
3019.0149,97.602
3019.9792,97.7702
3020.9434,97.9338
3021.9077,98.0931
3022.8718,98.2466
3023.8362,98.3931
3024.8003,98.5312
3025.7646,98.66
3026.7288,98.779
3027.6931,98.8892
3028.6572,98.9928
3029.6216,99.0937
3030.5857,99.1953
3031.5500,99.2988
3032.5142,99.402
3033.4785,99.5006
3034.4426,99.5907
3035.4070,99.67
3036.3711,99.7393
3037.3354,99.8004
3038.2996,99.855
3039.2639,99.9031
3040.2280,99.9429
3041.1924,99.9719
3042.1565,99.9885
3043.1208,99.9656
3044.0850,99.9296
3045.0493,99.891
3046.0134,99.855
3046.9778,99.8241
3047.9419,99.7963
3048.9063,99.766
3049.8704,99.7263
3050.8347,99.673
3051.7988,99.6072
3052.7632,99.534
3053.7273,99.4606
3054.6917,99.3923
3055.6558,99.3314
3056.6201,99.2763
3057.5842,99.224
3058.5486,99.1706
3059.5127,99.1133
3060.4771,99.0495
3061.4412,98.9782
3062.4055,98.9002
3063.3696,98.8195
3064.3340,98.7424
3065.2981,98.6748
3066.2625,98.6195
3067.2266,98.5741
3068.1909,98.5325
3069.1550,98.4881
3070.1194,98.4366
3071.0835,98.3769
3072.0479,98.3103
3073.0120,98.238
3073.9763,98.1606
3074.9404,98.0785
3075.9048,97.9937
3076.8689,97.9103
3077.8333,97.8336
3078.7974,97.7671
3079.7617,97.7104
3080.7258,97.6591
3081.6902,97.607
3082.6543,97.5491
3083.6187,97.4842
3084.5828,97.4142
3085.5471,97.3426
3086.5112,97.2725
3087.4756,97.2052
3088.4397,97.1402
3089.4041,97.0757
3090.3682,97.0092
3091.3325,96.9378
3092.2966,96.859
3093.2610,96.7712
3094.2251,96.6751
3095.1895,96.5735
3096.1536,96.471
3097.1179,96.3726
3098.0820,96.2813
3099.0464,96.1976
3100.0105,96.1193
3100.9749,96.0428
3101.9390,95.9652
3102.9033,95.8854
3103.8674,95.8039
3104.8318,95.7218
3105.7959,95.6395
3106.7603,95.5558
3107.7244,95.469
3108.6887,95.3777
3109.6528,95.2822
3110.6172,95.184
3111.5813,95.0849
3112.5457,94.9855
3113.5098,94.8853
3114.4741,94.7832
3115.4382,94.679
3116.4026,94.5744
3117.3667,94.4721
3118.3311,94.3751
3119.2952,94.285
3120.2595,94.2019
3121.2236,94.1237
3122.1880,94.0477
3123.1521,93.9712
3124.1165,93.8923
3125.0806,93.8101
3126.0449,93.7244
3127.0090,93.6351
3127.9734,93.5422
3128.9375,93.4457
3129.9019,93.3468
3130.8660,93.2474
3131.8303,93.1505
3132.7944,93.0583
3133.7588,92.9717
3134.7229,92.8889
3135.6873,92.8072
3136.6514,92.7233
3137.6157,92.6352
3138.5798,92.5424
3139.5442,92.4452
3140.5083,92.3449
3141.4727,92.2428
3142.4368,92.1398
3143.4011,92.0365
3144.3652,91.933
3145.3296,91.8295
3146.2937,91.7266
3147.2581,91.6261
3148.2222,91.53
3149.1865,91.4393
3150.1506,91.3526
3151.1150,91.2656
3152.0791,91.173
3153.0435,91.071
3154.0076,90.9596
3154.9719,90.8424
3155.9360,90.7245
3156.9004,90.6102
3157.8645,90.5007
3158.8289,90.3952
3159.7930,90.2916
3160.7573,90.1889
3161.7214,90.0872
3162.6858,89.9873
3163.6499,89.89
3164.6143,89.7953
3165.5784,89.7026
3166.5427,89.6112
3167.5068,89.5203
3168.4712,89.4288
3169.4353,89.3827
3170.3997,89.2829
3171.3638,89.175
3172.3281,89.0586
3173.2922,88.9358
3174.2566,88.8112
3175.2207,88.6902
3176.1851,88.577
3177.1492,88.4726
3178.1135,88.3748
3179.0776,88.2795
3180.0420,88.1832
3181.0061,88.085
3181.9705,87.9866
3182.9346,87.8908
3183.8989,87.7984
3184.8630,87.7073
3185.8274,87.6128
3186.7915,87.5109
3187.7559,87.401
3188.7200,87.2865
3189.6843,87.173
3190.6484,87.0653
3191.6128,86.9644
3192.5769,86.8678
3193.5413,86.7711
3194.5054,86.6713
3195.4697,86.5677
3196.4338,86.4628
3197.3982,86.3598
3198.3623,86.2616
3199.3267,86.1694
3200.2908,86.083
3201.2551,86.0003
3202.2192,85.9176
3203.1836,85.8299
3204.1477,85.7334
3205.1121,85.6271
3206.0762,85.5147
3207.0405,85.403
3208.0046,85.2986
3208.9690,85.2045
3209.9331,85.1185
3210.8975,85.0355
3211.8616,84.951
3212.8259,84.8641
3213.7900,84.7774
3214.7544,84.6942
3215.7185,84.6152
3216.6829,84.5375
3217.6470,84.4563
3218.6113,84.3681
3219.5754,84.2737
3220.5398,84.1771
3221.5039,84.0833
3222.4683,83.9951
3223.4324,83.9123
3224.3967,83.8326
3225.3608,83.7541
3226.3252,83.6766
3227.2893,83.6011
3228.2537,83.5283
3229.2178,83.4567
3230.1821,83.3836
3231.1462,83.3063
3232.1106,83.2253
3233.0747,83.1439
3234.0391,83.0664
3235.0032,82.9952
3235.9675,82.9287
3236.9316,82.8615
3237.8960,82.7884
3238.8601,82.7067
3239.8245,82.6187
3240.7886,82.5299
3241.7529,82.4469
3242.7170,82.3743
3243.6814,82.3138
3244.6455,82.2636
3245.6099,82.2194
3246.5740,82.1753
3247.5383,82.1258
3248.5024,82.0672
3249.4668,81.9988
3250.4309,81.9231
3251.3953,81.8445
3252.3594,81.7667
3253.3237,81.6915
3254.2878,81.6183
3255.2522,81.5461
3256.2163,81.4757
3257.1807,81.4103
3258.1448,81.3534
3259.1091,81.3066
3260.0732,81.267
3261.0376,81.2283
3262.0017,81.1832
3262.9661,81.1273
3263.9302,81.0606
3264.8945,80.9864
3265.8586,80.9092
3266.8230,80.8319
3267.7871,80.755
3268.7515,80.6782
3269.7156,80.6024
3270.6799,80.5306
3271.6440,80.467
3272.6084,80.4154
3273.5725,80.3759
3274.5369,80.345
3275.5010,80.3167
3276.4653,80.2855
3277.4294,80.2492
3278.3938,80.2082
3279.3579,80.1644
3280.3223,80.1192
3281.2864,80.0728
3282.2507,80.0247
3283.2148,79.975
3284.1792,79.925
3285.1433,79.8757
3286.1077,79.8269
3287.0718,79.7757
3288.0361,79.7185
3289.0002,79.6538
3289.9646,79.5842
3290.9287,79.5164
3291.8931,79.4587
3292.8572,79.4165
3293.8215,79.3893
3294.7856,79.371
3295.7500,79.3524
3296.7141,79.3253
3297.6785,79.2858
3298.6426,79.235
3299.6069,79.1783
3300.5710,79.1219
3301.5354,79.0708
3302.4995,79.0267
3303.4639,78.9887
3304.4280,78.9539
3305.3923,78.9199
3306.3564,78.8859
3307.3208,78.8526
3308.2849,78.8217
3309.2493,78.794
3310.2134,78.7691
3311.1777,78.7454
3312.1418,78.721
3313.1062,78.6952
3314.0703,78.6683
3315.0347,78.641
3315.9988,78.6136
3316.9631,78.5853
3317.9272,78.5547
3318.8916,78.5207
3319.8557,78.4831
3320.8201,78.4437
3321.7842,78.4053
3322.7485,78.3711
3323.7126,78.3432
3324.6770,78.3224
3325.6411,78.3077
3326.6055,78.297
3327.5696,78.2874
3328.5339,78.2757
3329.4980,78.2587
3330.4624,78.2344
3331.4265,78.2028
3332.3909,78.1672
3333.3550,78.1333
3334.3193,78.1074
3335.2834,78.0933
3336.2478,78.0893
3337.2119,78.0892
3338.1763,78.0854
3339.1404,78.0734
3340.1047,78.054
3341.0688,78.0318
3342.0332,78.0116
3342.9973,77.9947
3343.9617,77.9786
3344.9258,77.9599
3345.8901,77.9379
3346.8542,77.9161
3347.8186,77.9005
3348.7827,77.8958
3349.7471,77.9021
3350.7112,77.9147
3351.6755,77.9264
3352.6396,77.9311
3353.6040,77.9266
3354.5681,77.9146
3355.5325,77.8997
3356.4966,77.887
3357.4609,77.8801
3358.4250,77.8788
3359.3894,77.8796
3360.3535,77.8763
3361.3179,77.8641
3362.2820,77.8421
3363.2463,77.816
3364.2104,77.796
3365.1748,77.7927
3366.1389,77.8114
3367.1033,77.8487
3368.0674,77.8939
3369.0317,77.934
3369.9958,77.96
3370.9602,77.9709
3371.9243,77.9721
3372.8887,77.9715
3373.8528,77.975
3374.8171,77.9836
3375.7813,77.9951
3376.7456,78.0071
3377.7097,78.0203
3378.6741,78.0376
3379.6382,78.0619
3380.6025,78.0928
3381.5667,78.1261
3382.5310,78.1561
3383.4951,78.1792
3384.4595,78.1958
3385.4236,78.2101
3386.3879,78.2268
3387.3521,78.2484
3388.3164,78.2747
3389.2805,78.3035
3390.2449,78.3324
3391.2090,78.3602
3392.1733,78.3877
3393.1375,78.417
3394.1018,78.4508
3395.0659,78.4905
3396.0303,78.5348
3396.9944,78.5787
3397.9587,78.6155
3398.9229,78.6406
3399.8872,78.6556
3400.8513,78.6685
3401.8157,78.6902
3402.7798,78.7282
3403.7441,78.7824
3404.7083,78.8455
3405.6726,78.9076
3406.6367,78.9623
3407.6011,79.0097
3408.5652,79.0547
3409.5295,79.1024
3410.4937,79.1549
3411.4580,79.2102
3412.4221,79.2638
3413.3865,79.3115
3414.3506,79.3508
3415.3149,79.3815
3416.2791,79.4057
3417.2434,79.428
3418.2075,79.4562
3419.1719,79.4992
3420.1360,79.5635
3421.1003,79.648
3422.0645,79.7437
3423.0288,79.8372
3423.9929,79.9177
3424.9573,79.9819
3425.9214,80.0349
3426.8857,80.0861
3427.8499,80.1437
3428.8142,80.2104
3429.7783,80.2825
3430.7427,80.3533
3431.7068,80.4185
3432.6711,80.4788
3433.6353,80.5391
3434.5996,80.6043
3435.5637,80.6759
3436.5281,80.7513
3437.4922,80.8256
3438.4565,80.8955
3439.4207,80.9599
3440.3850,81.0195
3441.3491,81.0754
3442.3135,81.1288
3443.2776,81.1813
3444.2419,81.237
3445.2061,81.3015
3446.1704,81.3793
3447.1345,81.4704
3448.0989,81.5698
3449.0630,81.6702
3450.0273,81.767
3450.9915,81.8596
3451.9558,81.9489
3452.9199,82.0354
3453.8843,82.1176
3454.8484,82.1939
3455.8127,82.2647
3456.7769,82.3329
3457.7412,82.4027
3458.7053,82.4767
3459.6697,82.5542
3460.6338,82.6325
3461.5981,82.7086
3462.5623,82.7825
3463.5266,82.8574
3464.4907,82.938
3465.4551,83.0276
3466.4192,83.1261
3467.3835,83.2289
3468.3477,83.3296
3469.3120,83.4228
3470.2761,83.5078
3471.2405,83.5891
3472.2046,83.6737
3473.1689,83.767
3474.1331,83.8682
3475.0974,83.9706
3476.0615,84.0642
3477.0259,84.1433
3477.9900,84.2091
3478.9543,84.2704
3479.9185,84.3382
3480.8828,84.4202
3481.8469,84.5165
3482.8113,84.6206
3483.7754,84.7252
3484.7397,84.8269
3485.7039,84.9274
3486.6682,85.0302
3487.6323,85.137
3488.5967,85.2461
3489.5608,85.3529
3490.5251,85.4536
3491.4893,85.547
3492.4536,85.6365
3493.4177,85.7277
3494.3821,85.8258
3495.3462,85.9319
3496.3105,86.0409
3497.2747,86.1438
3498.2390,86.2339
3499.2031,86.3118
3500.1675,86.3874
3501.1316,86.477
3502.0959,86.594
3503.0601,86.7383
3504.0244,86.8934
3504.9885,87.0376
3505.9529,87.1593
3506.9170,87.2611
3507.8813,87.3558
3508.8455,87.4584
3509.8098,87.5784
3510.7739,87.7152
3511.7383,87.8601
3512.7024,88.0045
3513.6667,88.1438
3514.6309,88.2767
3515.5952,88.4019
3516.5593,88.5168
3517.5237,88.6185
3518.4878,88.7072
3519.4521,88.7876
3520.4163,88.8678
3521.3806,88.9559
3522.3447,89.0564
3523.3091,89.1677
3524.2732,89.2849
3525.2375,89.4052
3526.2017,89.5319
3527.1660,89.6725
3528.1301,89.8316
3529.0945,90.0045
3530.0586,90.1785
3531.0229,90.3417
3531.9871,90.4894
3532.9514,90.6259
3533.9155,90.7595
3534.8799,90.8977
3535.8440,91.0423
3536.8083,91.1866
3537.7725,91.3189
3538.7368,91.4292
3539.7009,91.5154
3540.6653,91.584
3541.6294,91.6489
3542.5938,91.7286
3543.5579,91.843
3544.5222,92.0035
3545.4863,92.2006
3546.4507,92.4033
3547.4148,92.5802
3548.3792,92.7215
3549.3433,92.8405
3550.3076,92.9607
3551.2717,93.1009
3552.2361,93.2653
3553.2002,93.4413
3554.1646,93.609
3555.1287,93.7549
3556.0930,93.8789
3557.0571,93.9882
3558.0215,94.0891
3558.9856,94.183
3559.9500,94.2667
3560.9141,94.3371
3561.8784,94.3954
3562.8425,94.447
3563.8069,94.502
3564.7710,94.5838
3565.7354,94.7335
3566.6995,94.9763
3567.6638,95.2663
3568.6279,95.5154
3569.5923,95.6805
3570.5564,95.7829
3571.5208,95.8631
3572.4849,95.9458
3573.4492,96.035
3574.4133,96.1246
3575.3777,96.2105
3576.3418,96.295
3577.3062,96.3831
3578.2703,96.4767
3579.2346,96.5712
3580.1987,96.659
3581.1631,96.7374
3582.1272,96.8108
3583.0916,96.8871
3584.0557,96.9697
3585.0200,97.0591
3585.9841,97.1629
3586.9485,97.2893
3587.9126,97.4172
3588.8770,97.5025
3589.8411,97.5287
3590.8054,97.52
3591.7695,97.5108
3592.7339,97.521
3593.6980,97.5532
3594.6624,97.5993
3595.6265,97.6468
3596.5908,97.689
3597.5549,97.7331
3598.5193,97.7952
3599.4834,97.8862
3600.4478,97.9997
3601.4119,98.1145
3602.3762,98.2127
3603.3403,98.2936
3604.3047,98.3712
3605.2688,98.4607
3606.2332,98.5708
3607.1973,98.6989
3608.1616,98.8269
3609.1257,98.9259
3610.0901,98.9751
3611.0542,98.9771
3612.0186,98.9547
3612.9829,98.9359
3613.9470,98.94
3614.9114,98.9729
3615.8755,99.03
3616.8398,99.103
3617.8040,99.1855
3618.7683,99.2686
3619.7324,99.328
3620.6968,99.3312
3621.6609,99.2748
3622.6252,99.2006
3623.5894,99.1659
3624.5537,99.205
3625.5178,99.3097
3626.4822,99.4402
3627.4463,99.565
3628.4106,99.6717
3629.3748,99.7373
3630.3391,99.7197
3631.3032,99.631
3632.2676,99.5359
3633.2317,99.4879
3634.1960,99.4973
3635.1602,99.5398
3636.1245,99.5811
3637.0886,99.5991
3638.0530,99.5904
3639.0171,99.5622
3639.9814,99.5221
3640.9456,99.4754
3641.9099,99.429
3642.8740,99.394
3643.8384,99.3786
3644.8025,99.3711
3645.7668,99.3306
3646.7310,99.2179
3647.6953,99.0908
3648.6594,99.1178
3649.6238,99.3146
3650.5879,99.4761
3651.5522,99.4922
3652.5164,99.4184
3653.4807,99.336
3654.4448,99.2792
3655.4092,99.2407
3656.3733,99.1998
3657.3376,99.143
3658.3018,99.0739
3659.2661,99.0125
3660.2302,98.9787
3661.1946,98.9758
3662.1587,98.9901
3663.1230,99.0064
3664.0872,99.0224
3665.0515,99.0456
3666.0156,99.0753
3666.9800,99.0908
3667.9441,99.0679
3668.9084,99.0131
3669.8726,98.9594
3670.8369,98.9231
3671.8010,98.8956
3672.7654,98.8641
3673.7295,98.8265
3674.6938,98.8117
3675.6580,98.8646
3676.6223,98.9711
3677.5864,99.061
3678.5508,99.0997
3679.5149,99.1027
3680.4792,99.0897
3681.4434,99.0659
3682.4077,99.0347
3683.3718,99.0102
3684.3362,99.0098
3685.3003,99.0321
3686.2646,99.0435
3687.2288,99.0001
3688.1931,98.9067
3689.1572,98.8379
3690.1216,98.8471
3691.0857,98.9061
3692.0500,98.9715
3693.0142,99.0332
3693.9785,99.0966
3694.9426,99.1648
3695.9070,99.2369
3696.8711,99.3129
3697.8354,99.3939
3698.7996,99.4786
3699.7639,99.5628
3700.7280,99.64
3701.6924,99.7021
3702.6565,99.7384
3703.6208,99.7448
3704.5850,99.7319
3705.5493,99.7181
3706.5134,99.7123
3707.4778,99.7055
3708.4419,99.6884
3709.4063,99.6895
3710.3704,99.7807
3711.3347,99.9843
3712.2988,100.203
3713.2632,100.325
3714.2273,100.333
3715.1917,100.273
3716.1558,100.195
3717.1201,100.119
3718.0842,100.043
3719.0486,99.9574
3720.0127,99.8602
3720.9771,99.7632
3721.9412,99.6846
3722.9055,99.6397
3723.8696,99.6331
3724.8340,99.654
3725.7981,99.6803
3726.7625,99.6941
3727.7266,99.6948
3728.6909,99.6941
3729.6550,99.6986
3730.6194,99.696
3731.5835,99.6599
3732.5479,99.5786
3733.5120,99.4941
3734.4763,99.4892
3735.4404,99.5809
3736.4048,99.6749
3737.3689,99.6923
3738.3333,99.6614
3739.2974,99.6682
3740.2617,99.7765
3741.2258,99.9831
3742.1902,100.211
3743.1543,100.373
3744.1187,100.361
3745.0828,100.188
3746.0471,99.9357
3747.0112,99.6981
3747.9756,99.5363
3748.9397,99.4764
3749.9041,99.534
3750.8682,99.6868
3751.8325,99.8223
3752.7966,99.8355
3753.7610,99.7424
3754.7251,99.627
3755.6895,99.5531
3756.6536,99.5388
3757.6179,99.5736
3758.5820,99.6348
3759.5464,99.6942
3760.5105,99.731
3761.4749,99.7447
3762.4390,99.7503
3763.4033,99.7607
3764.3674,99.7773
3765.3318,99.7929
3766.2959,99.8002
3767.2603,99.8
3768.2244,99.8022
3769.1887,99.8186
3770.1528,99.8494
3771.1172,99.8786
3772.0813,99.8893
3773.0457,99.8799
3774.0098,99.8634
3774.9741,99.8524
3775.9382,99.8486
3776.9026,99.846
3777.8667,99.8415
3778.8311,99.835
3779.7952,99.8215
3780.7595,99.7939
3781.7236,99.7533
3782.6880,99.7125
3783.6521,99.6889
3784.6165,99.6969
3785.5806,99.7401
3786.5449,99.8092
3787.5090,99.8863
3788.4734,99.9545
3789.4375,100.004
3790.4019,100.031
3791.3660,100.034
3792.3303,100.009
3793.2944,99.9486
3794.2588,99.8585
3795.2229,99.7594
3796.1873,99.6823
3797.1514,99.6489
3798.1157,99.6572
3799.0798,99.6852
3800.0442,99.7111
3801.0083,99.7292
3801.9727,99.744
3802.9368,99.7618
3803.9011,99.7967
3804.8652,99.8631
3805.8296,99.9568
3806.7937,100.046
3807.7581,100.088
3808.7222,100.061
3809.6865,99.9937
3810.6506,99.9437
3811.6150,99.9503
3812.5791,100.005
3813.5435,100.059
3814.5076,100.059
3815.4719,99.992
3816.4360,99.8839
3817.4004,99.7743
3818.3645,99.6958
3819.3289,99.67
3820.2930,99.701
3821.2573,99.7593
3822.2214,99.7907
3823.1858,99.7676
3824.1499,99.7138
3825.1143,99.6742
3826.0784,99.6785
3827.0427,99.7269
3828.0068,99.7968
3828.9712,99.8592
3829.9353,99.8949
3830.8997,99.9034
3831.8638,99.8991
3832.8281,99.8989
3833.7922,99.9071
3834.7566,99.9084
3835.7207,99.877
3836.6851,99.801
3837.6492,99.705
3838.6135,99.6371
3839.5776,99.6299
3840.5420,99.6825
3841.5061,99.775
3842.4705,99.8794
3843.4346,99.9616
3844.3989,99.9908
3845.3630,99.9588
3846.3274,99.8924
3847.2915,99.8455
3848.2559,99.8718
3849.2200,99.9947
3850.1843,100.186
3851.1484,100.376
3852.1128,100.516
3853.0769,100.614
3854.0413,100.638
3855.0054,100.515
3855.9697,100.286
3856.9338,100.07
3857.8982,99.9463
3858.8623,99.925
3859.8267,99.9631
3860.7908,99.9992
3861.7551,99.9941
3862.7192,99.9577
3863.6836,99.9317
3864.6477,99.9442
3865.6121,99.9908
3866.5762,100.047
3867.5405,100.084
3868.5046,100.085
3869.4690,100.052
3870.4331,100.015
3871.3975,100.002
3872.3616,100.02
3873.3259,100.055
3874.2900,100.094
3875.2544,100.13
3876.2185,100.16
3877.1829,100.176
3878.1470,100.166
3879.1113,100.129
3880.0754,100.085
3881.0398,100.063
3882.0039,100.086
3882.9683,100.153
3883.9324,100.244
3884.8967,100.326
3885.8608,100.372
3886.8252,100.371
3887.7893,100.334
3888.7537,100.285
3889.7178,100.237
3890.6821,100.198
3891.6462,100.174
3892.6106,100.159
3893.5747,100.145
3894.5391,100.139
3895.5032,100.154
3896.4675,100.189
3897.4316,100.23
3898.3960,100.255
3899.3601,100.257
3900.3245,100.237
3901.2886,100.203
3902.2529,100.168
3903.2170,100.148
3904.1814,100.15
3905.1455,100.168
3906.1099,100.192
3907.0740,100.218
3908.0383,100.245
3909.0024,100.274
3909.9668,100.296
3910.9309,100.308
3911.8953,100.313
3912.8594,100.316
3913.8237,100.323
3914.7878,100.337
3915.7522,100.351
3916.7163,100.361
3917.6807,100.359
3918.6448,100.336
3919.6091,100.29
3920.5732,100.23
3921.5376,100.173
3922.5017,100.135
3923.4661,100.123
3924.4302,100.136
3925.3945,100.159
3926.3586,100.175
3927.3230,100.174
3928.2871,100.161
3929.2515,100.146
3930.2156,100.143
3931.1799,100.168
3932.1440,100.222
3933.1084,100.291
3934.0725,100.353
3935.0369,100.393
3936.0010,100.408
3936.9653,100.399
3937.9294,100.371
3938.8938,100.329
3939.8579,100.283
3940.8223,100.247
3941.7864,100.235
3942.7507,100.249
3943.7148,100.281
3944.6792,100.312
3945.6433,100.328
3946.6077,100.323
3947.5718,100.301
3948.5361,100.273
3949.5002,100.253
3950.4646,100.248
3951.4287,100.258
3952.3931,100.278
3953.3572,100.302
3954.3215,100.326
3955.2856,100.346
3956.2500,100.36
3957.2141,100.364
3958.1785,100.361
3959.1426,100.353
3960.1069,100.345
3961.0710,100.341
3962.0354,100.344
3962.9995,100.354
3963.9639,100.365
3964.9280,100.373
3965.8923,100.374
3966.8564,100.365
3967.8208,100.348
3968.7849,100.328
3969.7493,100.309
3970.7134,100.298
3971.6777,100.298
3972.6418,100.311
3973.6062,100.334
3974.5703,100.362
3975.5347,100.388
3976.4988,100.407
3977.4631,100.417
3978.4272,100.417
3979.3916,100.411
3980.3557,100.4
3981.3201,100.388
3982.2842,100.378
3983.2485,100.371
3984.2126,100.37
3985.1770,100.374
3986.1411,100.383
3987.1055,100.394
3988.0696,100.402
3989.0339,100.403
3989.9980,100.395
3990.9624,100.38
3991.9265,100.363
3992.8909,100.354
3993.8550,100.358
3994.8193,100.374
3995.7834,100.393
3996.7478,100.403
3997.7119,100.401
3998.6763,100.392
3999.6404,100.384
4000.6047,100.249

##### Extended Information
[Comments]
Sample name
Comment
User
Division
Company,HANKYONG

[Detailed Information]
Creation date,4/24/2024 10:59 AM

Data array type,Linear data array
Horizontal axis,Wavenumber [cm-1]
Vertical axis,%T
Start,649.893 cm-1
End,4000.6 cm-1
Data interval,0.964233 cm-1
Data points,3476    

[Measurement Information]
Model Name,FT/IR-4700typeA
Serial Number,D056761788

Accessory,ATR PRO ONE
Accessory S/N,C174761809
Incident angle,45 deg

Measurement Date,4/24/2024 10:59 AM

Light Source,Standard
Detector,TGS
Accumulation,32
Resolution,4 cm-1
Zero Filling,On
Apodization,Cosine
Gain,Auto (4)
Aperture,Auto (7.1 mm)
Scanning Speed,Auto (2 mm/sec)
Filter,Auto (30000 Hz)

