TITLE,
DATA TYPE,INFRARED SPECTRUM
ORIGIN,JASCO
OWNER,
DATE,24/04/24
TIME,10:25:24
SPECTROMETER/DATA SYSTEM,
LOCALE,1033
RESOLUTION,
DELTAX,0.964233
XUNITS,1/CM
YUNITS,TRANSMITTANCE
FIRSTX,  649.8934
LASTX, 4000.6047
NPOINTS,    3476
FIRSTY,   100.42084
MAXY,   101.04854
MINY,    56.06142
XYDATA
649.8934,100.421
650.8576,100.4
651.8218,100.409
652.7861,100.47
653.7503,100.585
654.7145,100.735
655.6788,100.884
656.6430,100.992
657.6072,101.036
658.5715,101.023
659.5357,100.988
660.4999,100.971
661.4642,100.991
662.4284,101.026
663.3926,101.033
664.3569,100.964
665.3211,100.781
666.2853,100.467
667.2496,100.074
668.2138,99.5738
669.1780,99.2756
670.1423,99.1812
671.1065,99.1258
672.0707,99.0139
673.0350,98.8351
673.9992,98.6196
674.9634,98.4116
675.9277,98.2534
676.8919,98.1708
677.8561,98.1654
678.8204,98.2221
679.7846,98.3197
680.7488,98.4368
681.7131,98.5555
682.6773,98.6654
683.6415,98.7682
684.6058,98.8759
685.5700,99
686.5342,99.1376
687.4985,99.2645
688.4627,99.341
689.4269,99.3271
690.3912,99.2029
691.3554,98.9895
692.3196,98.7635
693.2839,98.7523
694.2481,98.9639
695.2123,99.2985
696.1766,99.6609
697.1408,99.9708
698.1050,100.189
699.0693,100.314
700.0335,100.37
700.9977,100.389
701.9620,100.398
702.9262,100.409
703.8904,100.427
704.8547,100.455
705.8189,100.502
706.7831,100.571
707.7474,100.659
708.7116,100.751
709.6758,100.83
710.6401,100.88
711.6043,100.89
712.5685,100.86
713.5328,100.791
714.4970,100.69
715.4612,100.741
716.4255,100.579
717.3897,100.416
718.3539,100.276
719.3182,100.184
720.2824,100.155
721.2466,100.187
722.2109,100.258
723.1751,100.339
724.1393,100.406
725.1036,100.445
726.0678,100.46
727.0320,100.463
727.9963,100.468
728.9605,100.488
729.9247,100.527
730.8890,100.583
731.8532,100.653
732.8174,100.735
733.7817,100.826
734.7459,100.919
735.7101,100.999
736.6744,101.048
737.6386,101.049
738.6028,100.995
739.5671,100.896
740.5313,100.773
741.4955,100.655
742.4598,100.563
743.4240,100.503
744.3882,100.473
745.3525,100.457
746.3167,100.442
747.2809,100.416
748.2452,100.374
749.2094,100.317
750.1736,100.249
751.1379,100.153
752.1021,100.013
753.0663,99.8726
754.0306,99.7292
754.9948,99.5811
755.9590,99.4291
756.9233,99.2768
757.8875,99.1297
758.8517,98.992
759.8160,98.8657
760.7802,98.7515
761.7444,98.6494
762.7087,98.5585
763.6729,98.4752
764.6371,98.3921
765.6014,98.3002
766.5656,98.1946
767.5298,98.079
768.4941,97.9657
769.4583,97.869
770.4225,97.7955
771.3868,97.7383
772.3510,97.6788
773.3152,97.5956
774.2795,97.4754
775.2437,97.3177
776.2079,97.1339
777.1722,96.9399
778.1364,96.7493
779.1006,96.5699
780.0649,96.4032
781.0291,96.2467
781.9933,96.0964
782.9576,95.9486
783.9218,95.8019
784.8860,95.6577
785.8503,95.5192
786.8145,95.3879
787.7787,95.2606
788.7430,95.1293
789.7072,94.984
790.6714,94.8189
791.6357,94.6348
792.5999,94.4389
793.5641,94.2394
794.5284,94.0412
795.4926,93.8444
796.4568,93.6471
797.4211,93.4491
798.3853,93.252
799.3495,93.0576
800.3138,92.8636
801.2780,92.6639
802.2422,92.4505
803.2065,92.2187
804.1707,91.9694
805.1349,91.7079
806.0992,91.4399
807.0634,91.168
808.0276,90.8907
808.9919,90.6043
809.9561,90.3055
810.9203,89.9934
811.8846,89.6706
812.8488,89.3432
813.8130,89.0217
814.7773,88.7201
815.7415,88.4537
816.7057,88.2341
817.6700,88.064
818.6342,87.9353
819.5984,87.8315
820.5627,87.7336
821.5269,87.628
822.4911,87.5103
823.4554,87.385
824.4196,87.2605
825.3839,87.1442
826.3481,87.0381
827.3123,86.9384
828.2766,86.8367
829.2408,86.7219
830.2050,86.5814
831.1693,86.4027
832.1335,86.1754
833.0977,85.8937
834.0620,85.5584
835.0262,85.1767
835.9904,84.7598
836.9547,84.3187
837.9189,83.861
838.8831,83.3902
839.8474,82.9087
840.8116,82.4221
841.7758,81.9417
842.7401,81.4839
843.7043,81.0657
844.6685,80.6999
845.6328,80.3916
846.5970,80.138
847.5612,79.9314
848.5255,79.7627
849.4897,79.6248
850.4539,79.513
851.4182,79.4246
852.3824,79.3575
853.3466,79.3089
854.3109,79.2752
855.2751,79.253
856.2393,79.2386
857.2036,79.2292
858.1678,79.223
859.1320,79.2203
860.0963,79.2246
861.0605,79.2432
862.0247,79.2868
862.9890,79.3655
863.9532,79.4846
864.9174,79.6419
865.8817,79.8276
866.8459,80.03
867.8101,80.2414
868.7744,80.4629
869.7386,80.703
870.7028,80.9709
871.6671,81.2684
872.6313,81.5843
873.5955,81.8969
874.5598,82.182
875.5240,82.4218
876.4882,82.6107
877.4525,82.7538
878.4167,82.8613
879.3809,82.9425
880.3452,83.0022
881.3094,83.0419
882.2736,83.0629
883.2379,83.0677
884.2021,83.0584
885.1663,83.0351
886.1306,82.9945
887.0948,82.9329
888.0590,82.8503
889.0233,82.7545
889.9875,82.6598
890.9517,82.5829
891.9160,82.5371
892.8802,82.5277
893.8444,82.5523
894.8087,82.6024
895.7729,82.667
896.7371,82.7349
897.7014,82.7954
898.6656,82.8404
899.6298,82.8655
900.5941,82.871
901.5583,82.8617
902.5225,82.8438
903.4868,82.8226
904.4510,82.7999
905.4152,82.7739
906.3795,82.7401
907.3437,82.6931
908.3079,82.6284
909.2722,82.5445
910.2364,82.4448
911.2006,82.3389
912.1649,82.241
913.1291,82.1655
914.0933,82.1226
915.0576,82.1148
916.0218,82.1371
916.9860,82.1814
917.9503,82.2403
918.9145,82.3114
919.8787,82.3974
920.8430,82.5056
921.8072,82.6458
922.7714,82.8285
923.7357,83.0626
924.6999,83.3526
925.6641,83.6969
926.6284,84.0894
927.5926,84.524
928.5568,85.0018
929.5211,85.536
930.4853,86.1519
931.4495,86.8802
932.4138,87.7461
933.3780,88.758
934.3422,89.9018
935.3065,91.1412
936.2707,92.4242
937.2349,93.6928
938.1992,94.8929
939.1634,95.9818
940.1276,96.9322
941.0919,97.7326
942.0561,98.3844
943.0203,98.9127
943.9846,99.3524
944.9488,99.6806
945.9130,99.9105
946.8773,100.054
947.8415,100.125
948.8057,100.135
949.7700,100.096
950.7342,100.021
951.6984,99.9181
952.6627,99.7957
953.6269,99.6563
954.5911,99.4975
955.5554,99.3123
956.5196,99.0918
957.4838,98.8285
958.4481,98.519
959.4123,98.1648
960.3765,97.7708
961.3408,97.3427
962.3050,96.8866
963.2692,96.4087
964.2335,95.9162
965.1977,95.4174
966.1619,94.9211
967.1262,94.4351
968.0904,93.9656
969.0546,93.5184
970.0189,93.0992
970.9831,92.7142
971.9473,92.3688
972.9116,92.0661
973.8758,91.8052
974.8400,91.5806
975.8043,91.3828
976.7685,91.1985
977.7327,91.0129
978.6970,90.8108
979.6612,90.5797
980.6254,90.312
981.5897,90.0049
982.5539,89.6602
983.5181,89.2815
984.4824,88.8737
985.4466,88.4435
986.4108,88.0021
987.3751,87.567
988.3393,87.1603
989.3035,86.8051
990.2678,86.5198
991.2320,86.3139
992.1962,86.1866
993.1605,86.1294
994.1247,86.1297
995.0889,86.1745
996.0532,86.2526
997.0174,86.3535
997.9816,86.4663
998.9459,86.5784
999.9101,86.675
1000.8743,86.7399
1001.8386,86.7565
1002.8028,86.7082
1003.7670,86.5781
1004.7313,86.3491
1005.6955,86.0053
1006.6597,85.5344
1007.6240,84.9302
1008.5882,84.1935
1009.5524,83.3311
1010.5167,82.3534
1011.4809,81.2723
1012.4451,80.1001
1013.4094,78.8495
1014.3736,77.5332
1015.3378,76.1636
1016.3021,74.7529
1017.2663,73.3151
1018.2305,71.8663
1019.1948,70.4241
1020.1590,69.0035
1021.1232,67.6112
1022.0875,66.2456
1023.0517,64.9024
1024.0160,63.5849
1024.9802,62.3137
1025.9445,61.125
1026.9087,60.0596
1027.8729,59.1458
1028.8372,58.3882
1029.8014,57.7682
1030.7656,57.2571
1031.7299,56.8323
1032.6941,56.4877
1033.6583,56.2334
1034.6226,56.0868
1035.5868,56.0614
1036.5510,56.1596
1037.5153,56.3716
1038.4795,56.6784
1039.4437,57.0565
1040.4080,57.4823
1041.3722,57.9366
1042.3364,58.4075
1043.3007,58.8917
1044.2649,59.3936
1045.2291,59.9205
1046.1934,60.4789
1047.1576,61.0711
1048.1218,61.6958
1049.0861,62.3496
1050.0503,63.0286
1051.0145,63.7275
1051.9788,64.439
1052.9430,65.1538
1053.9072,65.8644
1054.8715,66.5706
1055.8357,67.2807
1056.7999,68.0071
1057.7642,68.7542
1058.7284,69.5057
1059.6926,70.2205
1060.6569,70.8427
1061.6211,71.3246
1062.5853,71.6514
1063.5496,71.8515
1064.5138,71.9858
1065.4780,72.1183
1066.4423,72.2846
1067.4065,72.474
1068.3707,72.6374
1069.3350,72.7128
1070.2992,72.6546
1071.2634,72.4503
1072.2277,72.1171
1073.1919,71.6873
1074.1561,71.1905
1075.1204,70.6457
1076.0846,70.0627
1077.0488,69.4489
1078.0131,68.8142
1078.9773,68.1717
1079.9415,67.5344
1080.9058,66.9125
1081.8700,66.313
1082.8342,65.7416
1083.7985,65.2067
1084.7627,64.722
1085.7269,64.3078
1086.6912,63.9882
1087.6554,63.7847
1088.6196,63.7075
1089.5839,63.7491
1090.5481,63.8823
1091.5123,64.0677
1092.4766,64.2643
1093.4408,64.4428
1094.4050,64.5917
1095.3693,64.7171
1096.3335,64.835
1097.2977,64.9613
1098.2620,65.1046
1099.2262,65.2625
1100.1904,65.4241
1101.1547,65.5754
1102.1189,65.7056
1103.0831,65.8119
1104.0474,65.9005
1105.0116,65.9843
1105.9758,66.0797
1106.9401,66.203
1107.9043,66.3702
1108.8685,66.5972
1109.8328,66.9013
1110.7970,67.301
1111.7612,67.8131
1112.7255,68.4502
1113.6897,69.2187
1114.6539,70.1187
1115.6182,71.1455
1116.5824,72.2915
1117.5466,73.5472
1118.5109,74.9007
1119.4751,76.3381
1120.4393,77.8439
1121.4036,79.4022
1122.3678,80.9971
1123.3320,82.6129
1124.2963,84.2322
1125.2605,85.8353
1126.2247,87.4013
1127.1890,88.9094
1128.1532,90.3428
1129.1174,91.6891
1130.0817,92.9409
1131.0459,94.0937
1132.0101,95.1447
1132.9744,96.0922
1133.9386,96.9357
1134.9028,97.6757
1135.8671,98.3132
1136.8313,98.8491
1137.7955,99.2847
1138.7598,99.6139
1139.7240,99.8202
1140.6882,99.9425
1141.6525,99.9891
1142.6167,99.9668
1143.5809,99.8811
1144.5452,99.7393
1145.5094,99.5535
1146.4736,99.3421
1147.4379,99.1268
1148.4021,98.9283
1149.3663,98.7607
1150.3306,98.6304
1151.2948,98.5372
1152.2590,98.477
1153.2233,98.4447
1154.1875,98.4349
1155.1517,98.4408
1156.1160,98.4547
1157.0802,98.4674
1158.0444,98.4691
1159.0087,98.45
1159.9729,98.4002
1160.9371,98.3114
1161.9014,98.1783
1162.8656,97.9999
1163.8298,97.7799
1164.7941,97.5247
1165.7583,97.2407
1166.7225,96.9315
1167.6868,96.5979
1168.6510,96.2391
1169.6152,95.8547
1170.5795,95.4458
1171.5437,95.0139
1172.5079,94.5605
1173.4722,94.0862
1174.4364,93.5915
1175.4006,93.0779
1176.3649,92.5486
1177.3291,92.0081
1178.2933,91.4607
1179.2576,90.9101
1180.2218,90.3587
1181.1860,89.8083
1182.1503,89.2612
1183.1145,88.721
1184.0787,88.1927
1185.0430,87.6818
1186.0072,87.1924
1186.9714,86.726
1187.9357,86.2809
1188.8999,85.8532
1189.8641,85.4388
1190.8284,85.0351
1191.7926,84.6411
1192.7568,84.2571
1193.7211,83.8832
1194.6853,83.5178
1195.6495,83.1587
1196.6138,82.8028
1197.5780,82.4473
1198.5422,82.09
1199.5065,81.7363
1200.4707,81.3706
1201.4349,81.0014
1202.3992,80.6317
1203.3634,80.2663
1204.3276,79.911
1205.2919,79.5709
1206.2561,79.2493
1207.2203,78.9477
1208.1846,78.6672
1209.1488,78.4096
1210.1130,78.1777
1211.0773,77.9746
1212.0415,77.8019
1213.0057,77.6595
1213.9700,77.5458
1214.9342,77.4596
1215.8984,77.4014
1216.8627,77.3722
1217.8269,77.3723
1218.7911,77.3984
1219.7554,77.4446
1220.7196,77.503
1221.6838,77.567
1222.6481,77.6318
1223.6123,77.6942
1224.5765,77.7501
1225.5408,77.7926
1226.5050,77.8115
1227.4692,77.7937
1228.4335,77.7259
1229.3977,77.5979
1230.3619,77.4077
1231.3262,77.1685
1232.2904,76.9124
1233.2546,76.6893
1234.2189,76.5576
1235.1831,76.5698
1236.1473,76.7586
1237.1116,77.1301
1238.0758,77.6674
1239.0400,78.3402
1240.0043,79.1139
1240.9685,79.9518
1241.9327,80.8121
1242.8970,81.6451
1243.8612,82.3977
1244.8254,83.0267
1245.7897,83.5117
1246.7539,83.8614
1247.7181,84.1064
1248.6824,84.2847
1249.6466,84.4264
1250.6108,84.5467
1251.5751,84.6465
1252.5393,84.7201
1253.5035,84.7619
1254.4678,84.7701
1255.4320,84.7466
1256.3962,84.6956
1257.3605,84.6216
1258.3247,84.5291
1259.2889,84.4219
1260.2532,84.3029
1261.2174,84.1736
1262.1816,84.034
1263.1459,83.884
1264.1101,83.7247
1265.0743,83.5599
1266.0386,83.3955
1267.0028,83.2391
1267.9670,83.0987
1268.9313,82.9819
1269.8955,82.8955
1270.8597,82.8458
1271.8240,82.837
1272.7882,82.8708
1273.7524,82.9456
1274.7167,83.0573
1275.6809,83.2004
1276.6451,83.3697
1277.6094,83.561
1278.5736,83.7712
1279.5378,83.9969
1280.5021,84.2338
1281.4663,84.4771
1282.4305,84.7221
1283.3948,84.9652
1284.3590,85.2045
1285.3232,85.4388
1286.2875,85.6669
1287.2517,85.8867
1288.2159,86.096
1289.1802,86.2939
1290.1444,86.4813
1291.1086,86.6612
1292.0729,86.8368
1293.0371,87.0097
1294.0013,87.1791
1294.9656,87.3423
1295.9298,87.4958
1296.8940,87.6368
1297.8583,87.7638
1298.8225,87.876
1299.7867,87.9719
1300.7510,88.05
1301.7152,88.1088
1302.6794,88.1476
1303.6437,88.1675
1304.6079,88.1697
1305.5721,88.1553
1306.5364,88.1244
1307.5006,88.0767
1308.4648,88.0123
1309.4291,87.9331
1310.3933,87.8423
1311.3575,87.7439
1312.3218,87.6409
1313.2860,87.5348
1314.2502,87.4258
1315.2145,87.314
1316.1787,87.201
1317.1429,87.0902
1318.1072,86.9855
1319.0714,86.8889
1320.0356,86.7992
1320.9999,86.7125
1321.9641,86.6253
1322.9283,86.5374
1323.8926,86.4522
1324.8568,86.3768
1325.8210,86.3188
1326.7853,86.285
1327.7495,86.2803
1328.7137,86.3076
1329.6780,86.369
1330.6422,86.4646
1331.6064,86.5901
1332.5707,86.7363
1333.5349,86.8907
1334.4991,87.0431
1335.4634,87.1916
1336.4276,87.3458
1337.3918,87.5243
1338.3561,87.7438
1339.3203,88.0027
1340.2845,88.2747
1341.2488,88.5246
1342.2130,88.7293
1343.1772,88.8853
1344.1415,89.0013
1345.1057,89.089
1346.0699,89.1583
1347.0342,89.2158
1347.9984,89.2643
1348.9626,89.3037
1349.9269,89.3318
1350.8911,89.3455
1351.8553,89.3438
1352.8196,89.3283
1353.7838,89.3028
1354.7480,89.2698
1355.7123,89.2281
1356.6765,89.1736
1357.6407,89.1024
1358.6050,89.0153
1359.5692,88.9194
1360.5334,88.8279
1361.4977,88.7556
1362.4619,88.7079
1363.4261,88.6749
1364.3904,88.6394
1365.3546,88.5909
1366.3188,88.5305
1367.2831,88.4645
1368.2473,88.3969
1369.2115,88.3266
1370.1758,88.2491
1371.1400,88.1626
1372.1042,88.0725
1373.0685,87.9918
1374.0327,87.9334
1374.9969,87.8974
1375.9612,87.868
1376.9254,87.8265
1377.8896,87.7659
1378.8539,87.6954
1379.8181,87.6332
1380.7823,87.5964
1381.7466,87.5934
1382.7108,87.6246
1383.6750,87.6903
1384.6393,87.7958
1385.6035,87.9457
1386.5677,88.1254
1387.5320,88.2877
1388.4962,88.3728
1389.4604,88.3486
1390.4247,88.2258
1391.3889,88.0427
1392.3531,87.8489
1393.3174,87.697
1394.2816,87.6298
1395.2458,87.6562
1396.2101,87.7368
1397.1743,87.804
1398.1385,87.8047
1399.1028,87.7244
1400.0670,87.5794
1401.0313,87.3959
1401.9955,87.1955
1402.9597,86.9914
1403.9240,86.7914
1404.8882,86.6011
1405.8524,86.4234
1406.8167,86.2566
1407.7809,86.0959
1408.7451,85.9364
1409.7094,85.7743
1410.6736,85.606
1411.6378,85.4278
1412.6021,85.2371
1413.5663,85.0333
1414.5305,84.8175
1415.4948,84.5892
1416.4590,84.3471
1417.4232,84.0937
1418.3875,83.8403
1419.3517,83.5968
1420.3159,83.3615
1421.2802,83.129
1422.2444,82.9024
1423.2086,82.6922
1424.1729,82.5089
1425.1371,82.3598
1426.1013,82.2514
1427.0656,82.1952
1428.0298,82.2085
1428.9940,82.3039
1429.9583,82.4715
1430.9225,82.676
1431.8867,82.8817
1432.8510,83.0804
1433.8152,83.2966
1434.7794,83.5669
1435.7437,83.9008
1436.7079,84.2383
1437.6721,84.4701
1438.6364,84.5284
1439.6006,84.4269
1440.5648,84.2156
1441.5291,83.9349
1442.4933,83.6055
1443.4575,83.2347
1444.4218,82.8254
1445.3860,82.3806
1446.3502,81.9073
1447.3145,81.4208
1448.2787,80.9432
1449.2429,80.4959
1450.2072,80.0895
1451.1714,79.7245
1452.1356,79.3984
1453.0999,79.1084
1454.0641,78.8533
1455.0283,78.6421
1455.9926,78.5136
1456.9568,78.5142
1457.9210,78.59
1458.8853,78.612
1459.8495,78.5421
1460.8137,78.4319
1461.7780,78.3534
1462.7422,78.383
1463.7064,78.5993
1464.6707,79.0388
1465.6349,79.636
1466.5991,80.2608
1467.5634,80.8365
1468.5276,81.383
1469.4918,81.9803
1470.4561,82.733
1471.4203,83.7375
1472.3845,84.9968
1473.3488,86.3189
1474.3130,87.4274
1475.2772,88.2142
1476.2415,88.7499
1477.2057,89.1353
1478.1699,89.4315
1479.1342,89.6657
1480.0984,89.8513
1481.0626,89.9968
1482.0269,90.1058
1482.9911,90.1762
1483.9553,90.2044
1484.9196,90.1895
1485.8838,90.1355
1486.8480,90.0525
1487.8123,89.9615
1488.7765,89.89
1489.7407,89.8408
1490.7050,89.7791
1491.6692,89.6732
1492.6334,89.5208
1493.5977,89.3344
1494.5619,89.1244
1495.5261,88.9004
1496.4904,88.681
1497.4546,88.4884
1498.4188,88.3209
1499.3831,88.1502
1500.3473,87.9588
1501.3115,87.7546
1502.2758,87.5517
1503.2400,87.3457
1504.2042,87.0922
1505.1685,86.6934
1506.1327,86.0472
1507.0969,85.2271
1508.0612,84.4872
1509.0254,83.904
1509.9896,83.3833
1510.9539,82.8657
1511.9181,82.3558
1512.8823,81.9027
1513.8466,81.5899
1514.8108,81.5105
1515.7750,81.7181
1516.7393,82.1938
1517.7035,82.888
1518.6677,83.809
1519.6320,85.0408
1520.5962,86.6249
1521.5604,88.408
1522.5247,90.093
1523.4889,91.4884
1524.4531,92.6283
1525.4174,93.6525
1526.3816,94.6386
1527.3458,95.5493
1528.3101,96.3068
1529.2743,96.8827
1530.2385,97.3228
1531.2028,97.7149
1532.1670,98.1338
1533.1312,98.5824
1534.0955,98.9831
1535.0597,99.2601
1536.0239,99.4098
1536.9882,99.4756
1537.9524,99.4929
1538.9166,99.4733
1539.8809,99.4449
1540.8451,99.4817
1541.8093,99.601
1542.7736,99.7646
1543.7378,99.8932
1544.7020,99.9866
1545.6663,100.046
1546.6305,100.069
1547.5947,100.06
1548.5590,100.028
1549.5232,99.9842
1550.4874,99.9293
1551.4517,99.8581
1552.4159,99.7682
1553.3801,99.6682
1554.3444,99.574
1555.3086,99.4949
1556.2728,99.4229
1557.2371,99.3483
1558.2013,99.3007
1559.1655,99.291
1560.1298,99.221
1561.0940,99.0398
1562.0582,98.7975
1563.0225,98.5514
1563.9867,98.3287
1564.9509,98.1314
1565.9152,97.9457
1566.8794,97.7479
1567.8436,97.5151
1568.8079,97.2412
1569.7721,96.9456
1570.7363,96.6566
1571.7006,96.389
1572.6648,96.1341
1573.6290,95.8577
1574.5933,95.511
1575.5575,95.0706
1576.5217,94.5841
1577.4860,94.132
1578.4502,93.7384
1579.4144,93.3731
1580.3787,93.0005
1581.3429,92.5998
1582.3071,92.1676
1583.2714,91.7174
1584.2356,91.2701
1585.1998,90.8409
1586.1641,90.4335
1587.1283,90.0466
1588.0925,89.6813
1589.0568,89.3412
1590.0210,89.0279
1590.9852,88.7376
1591.9495,88.4648
1592.9137,88.2071
1593.8779,87.9659
1594.8422,87.7434
1595.8064,87.5373
1596.7706,87.3415
1597.7349,87.1506
1598.6991,86.9636
1599.6633,86.785
1600.6276,86.6227
1601.5918,86.4849
1602.5560,86.3766
1603.5203,86.2962
1604.4845,86.2372
1605.4487,86.1924
1606.4130,86.1614
1607.3772,86.1536
1608.3414,86.1828
1609.3057,86.2543
1610.2699,86.3562
1611.2341,86.4706
1612.1984,86.5944
1613.1626,86.752
1614.1268,86.9984
1615.0911,87.4045
1616.0553,87.9905
1617.0195,88.645
1617.9838,89.193
1618.9480,89.5691
1619.9122,89.8366
1620.8765,90.0934
1621.8407,90.4053
1622.8049,90.7788
1623.7692,91.1627
1624.7334,91.4915
1625.6976,91.7427
1626.6619,91.9408
1627.6261,92.1159
1628.5903,92.2723
1629.5546,92.3952
1630.5188,92.4768
1631.4830,92.5256
1632.4473,92.5559
1633.4115,92.5747
1634.3757,92.5889
1635.3400,92.6216
1636.3042,92.6859
1637.2684,92.7425
1638.2327,92.7496
1639.1969,92.7105
1640.1611,92.6501
1641.1254,92.5881
1642.0896,92.5329
1643.0538,92.4798
1644.0181,92.4104
1644.9823,92.3029
1645.9465,92.1607
1646.9108,92.0233
1647.8750,91.9253
1648.8392,91.873
1649.8035,91.8608
1650.7677,91.8709
1651.7319,91.8695
1652.6962,91.8373
1653.6604,91.7847
1654.6246,91.6817
1655.5889,91.5024
1656.5531,91.289
1657.5173,91.0938
1658.4816,90.9399
1659.4458,90.8228
1660.4100,90.7259
1661.3743,90.6352
1662.3385,90.5448
1663.3027,90.4501
1664.2670,90.3477
1665.2312,90.2391
1666.1954,90.1269
1667.1597,90.0084
1668.1239,89.882
1669.0881,89.759
1670.0524,89.6586
1671.0166,89.5856
1671.9808,89.5296
1672.9451,89.4822
1673.9093,89.4366
1674.8735,89.3767
1675.8378,89.2775
1676.8020,89.1226
1677.7662,88.9235
1678.7305,88.7138
1679.6947,88.526
1680.6589,88.3712
1681.6232,88.2346
1682.5874,88.0903
1683.5516,87.9312
1684.5159,87.7622
1685.4801,87.5649
1686.4443,87.3209
1687.4086,87.039
1688.3728,86.7406
1689.3370,86.4458
1690.3013,86.1687
1691.2655,85.9129
1692.2297,85.6664
1693.1940,85.4015
1694.1582,85.0873
1695.1224,84.7128
1696.0867,84.3096
1697.0509,83.9471
1698.0151,83.6794
1698.9794,83.487
1699.9436,83.293
1700.9078,83.0426
1701.8721,82.746
1702.8363,82.4504
1703.8005,82.2008
1704.7648,82.0214
1705.7290,81.9146
1706.6932,81.8634
1707.6575,81.8407
1708.6217,81.8246
1709.5859,81.8088
1710.5502,81.7977
1711.5144,81.7982
1712.4786,81.815
1713.4429,81.8575
1714.4071,81.9551
1715.3713,82.1719
1716.3356,82.5696
1717.2998,83.0943
1718.2640,83.5672
1719.2283,83.8774
1720.1925,84.061
1721.1567,84.2084
1722.1210,84.3862
1723.0852,84.6181
1724.0494,84.8914
1725.0137,85.1763
1725.9779,85.4463
1726.9421,85.6912
1727.9064,85.9155
1728.8706,86.1312
1729.8348,86.3558
1730.7991,86.6173
1731.7633,86.9584
1732.7275,87.4109
1733.6918,87.9278
1734.6560,88.3762
1735.6202,88.6694
1736.5845,88.8437
1737.5487,88.9931
1738.5129,89.1943
1739.4772,89.4763
1740.4414,89.8186
1741.4056,90.1698
1742.3699,90.486
1743.3341,90.7573
1744.2983,91.0013
1745.2626,91.2404
1746.2268,91.491
1747.1910,91.7703
1748.1553,92.1018
1749.1195,92.4966
1750.0837,92.9182
1751.0480,93.29
1752.0122,93.5606
1752.9764,93.7395
1753.9407,93.8729
1754.9049,94.0057
1755.8691,94.1606
1756.8334,94.3358
1757.7976,94.5174
1758.7618,94.6961
1759.7261,94.8764
1760.6903,95.0677
1761.6545,95.2688
1762.6188,95.4624
1763.5830,95.6288
1764.5472,95.7635
1765.5115,95.8773
1766.4757,95.9846
1767.4399,96.0925
1768.4042,96.2009
1769.3684,96.3127
1770.3326,96.4451
1771.2969,96.6263
1772.2611,96.8643
1773.2253,97.1208
1774.1896,97.3424
1775.1538,97.5113
1776.1180,97.6487
1777.0823,97.7861
1778.0465,97.943
1779.0107,98.1195
1779.9750,98.3019
1780.9392,98.4743
1781.9034,98.6297
1782.8677,98.7697
1783.8319,98.8966
1784.7961,99.0059
1785.7604,99.0902
1786.7246,99.1485
1787.6888,99.1894
1788.6531,99.2255
1789.6173,99.2659
1790.5815,99.3154
1791.5458,99.3762
1792.5100,99.4431
1793.4742,99.4985
1794.4385,99.5289
1795.4027,99.5413
1796.3669,99.5542
1797.3312,99.5813
1798.2954,99.6254
1799.2596,99.6816
1800.2239,99.7422
1801.1881,99.799
1802.1523,99.8452
1803.1166,99.8777
1804.0808,99.8979
1805.0450,99.9086
1806.0093,99.9125
1806.9735,99.9118
1807.9377,99.9094
1808.9020,99.9104
1809.8662,99.9209
1810.8304,99.943
1811.7947,99.972
1812.7589,100
1813.7231,100.022
1814.6874,100.037
1815.6516,100.048
1816.6158,100.054
1817.5801,100.065
1818.5443,100.08
1819.5085,100.092
1820.4728,100.105
1821.4370,100.123
1822.4012,100.148
1823.3655,100.178
1824.3297,100.204
1825.2939,100.22
1826.2582,100.222
1827.2224,100.218
1828.1866,100.219
1829.1509,100.236
1830.1151,100.267
1831.0793,100.302
1832.0436,100.322
1833.0078,100.324
1833.9720,100.316
1834.9363,100.308
1835.9005,100.306
1836.8647,100.31
1837.8290,100.315
1838.7932,100.322
1839.7574,100.332
1840.7217,100.348
1841.6859,100.366
1842.6501,100.381
1843.6144,100.389
1844.5786,100.391
1845.5428,100.388
1846.5071,100.38
1847.4713,100.374
1848.4355,100.375
1849.3998,100.387
1850.3640,100.404
1851.3282,100.42
1852.2925,100.43
1853.2567,100.435
1854.2209,100.436
1855.1852,100.435
1856.1494,100.434
1857.1136,100.431
1858.0779,100.428
1859.0421,100.426
1860.0063,100.427
1860.9706,100.428
1861.9348,100.425
1862.8990,100.412
1863.8633,100.39
1864.8275,100.362
1865.7917,100.335
1866.7560,100.32
1867.7202,100.332
1868.6844,100.374
1869.6487,100.43
1870.6129,100.473
1871.5771,100.491
1872.5414,100.49
1873.5056,100.484
1874.4698,100.479
1875.4341,100.477
1876.3983,100.477
1877.3625,100.477
1878.3268,100.475
1879.2910,100.474
1880.2552,100.473
1881.2195,100.473
1882.1837,100.47
1883.1479,100.463
1884.1122,100.453
1885.0764,100.442
1886.0406,100.432
1887.0049,100.427
1887.9691,100.425
1888.9333,100.427
1889.8976,100.427
1890.8618,100.423
1891.8260,100.414
1892.7903,100.404
1893.7545,100.397
1894.7188,100.399
1895.6830,100.408
1896.6472,100.42
1897.6115,100.43
1898.5757,100.431
1899.5399,100.425
1900.5042,100.414
1901.4684,100.402
1902.4326,100.391
1903.3969,100.381
1904.3611,100.37
1905.3253,100.355
1906.2896,100.337
1907.2538,100.319
1908.2180,100.307
1909.1823,100.304
1910.1465,100.31
1911.1107,100.318
1912.0750,100.322
1913.0392,100.321
1914.0034,100.319
1914.9677,100.317
1915.9319,100.318
1916.8961,100.318
1917.8604,100.313
1918.8246,100.299
1919.7888,100.276
1920.7531,100.251
1921.7173,100.234
1922.6815,100.23
1923.6458,100.238
1924.6100,100.25
1925.5742,100.258
1926.5385,100.259
1927.5027,100.253
1928.4669,100.245
1929.4312,100.237
1930.3954,100.23
1931.3596,100.224
1932.3239,100.217
1933.2881,100.211
1934.2523,100.205
1935.2166,100.2
1936.1808,100.195
1937.1450,100.188
1938.1093,100.177
1939.0735,100.163
1940.0377,100.147
1941.0020,100.131
1941.9662,100.119
1942.9304,100.115
1943.8947,100.118
1944.8589,100.124
1945.8231,100.131
1946.7874,100.138
1947.7516,100.142
1948.7158,100.144
1949.6801,100.142
1950.6443,100.137
1951.6085,100.131
1952.5728,100.125
1953.5370,100.123
1954.5012,100.123
1955.4655,100.126
1956.4297,100.129
1957.3939,100.132
1958.3582,100.132
1959.3224,100.132
1960.2866,100.129
1961.2509,100.125
1962.2151,100.118
1963.1793,100.11
1964.1436,100.102
1965.1078,100.096
1966.0720,100.095
1967.0363,100.1
1968.0005,100.108
1968.9647,100.117
1969.9290,100.122
1970.8932,100.122
1971.8574,100.119
1972.8217,100.115
1973.7859,100.113
1974.7501,100.113
1975.7144,100.114
1976.6786,100.115
1977.6428,100.115
1978.6071,100.113
1979.5713,100.11
1980.5355,100.107
1981.4998,100.105
1982.4640,100.101
1983.4282,100.096
1984.3925,100.09
1985.3567,100.081
1986.3209,100.071
1987.2852,100.061
1988.2494,100.052
1989.2136,100.044
1990.1779,100.037
1991.1421,100.033
1992.1063,100.031
1993.0706,100.03
1994.0348,100.028
1994.9990,100.025
1995.9633,100.02
1996.9275,100.015
1997.8917,100.01
1998.8560,100.006
1999.8202,100.002
2000.7844,99.9985
2001.7487,99.9933
2002.7129,99.9857
2003.6771,99.9755
2004.6414,99.9633
2005.6056,99.9507
2006.5698,99.9391
2007.5341,99.9298
2008.4983,99.923
2009.4625,99.9178
2010.4268,99.9124
2011.3910,99.905
2012.3552,99.8949
2013.3195,99.8825
2014.2837,99.8693
2015.2479,99.8574
2016.2122,99.8487
2017.1764,99.8439
2018.1406,99.8421
2019.1049,99.8413
2020.0691,99.8398
2021.0333,99.8369
2021.9976,99.833
2022.9618,99.8291
2023.9260,99.8258
2024.8903,99.8231
2025.8545,99.8202
2026.8187,99.8161
2027.7830,99.8104
2028.7472,99.8032
2029.7114,99.7952
2030.6757,99.7873
2031.6399,99.7799
2032.6041,99.7738
2033.5684,99.7696
2034.5326,99.768
2035.4968,99.7687
2036.4611,99.7709
2037.4253,99.7727
2038.3895,99.7724
2039.3538,99.7697
2040.3180,99.7658
2041.2822,99.7628
2042.2465,99.7621
2043.2107,99.7638
2044.1749,99.7662
2045.1392,99.7675
2046.1034,99.7666
2047.0676,99.7636
2048.0320,99.7597
2048.9961,99.7562
2049.9604,99.7537
2050.9246,99.7525
2051.8889,99.7523
2052.8530,99.7521
2053.8174,99.751
2054.7815,99.7481
2055.7458,99.743
2056.7100,99.7359
2057.6743,99.7275
2058.6384,99.7186
2059.6028,99.7101
2060.5669,99.7024
2061.5313,99.6963
2062.4954,99.6925
2063.4597,99.6921
2064.4238,99.6957
2065.3882,99.7028
2066.3523,99.7115
2067.3167,99.7198
2068.2808,99.7259
2069.2451,99.7292
2070.2092,99.7302
2071.1736,99.7298
2072.1377,99.7287
2073.1021,99.7273
2074.0662,99.7259
2075.0305,99.7245
2075.9946,99.7233
2076.9590,99.7224
2077.9231,99.7214
2078.8875,99.7204
2079.8516,99.7194
2080.8159,99.7187
2081.7800,99.7184
2082.7444,99.7188
2083.7085,99.7198
2084.6729,99.7212
2085.6370,99.7231
2086.6013,99.7256
2087.5654,99.7286
2088.5298,99.7316
2089.4939,99.7333
2090.4583,99.7328
2091.4224,99.7298
2092.3867,99.725
2093.3508,99.7199
2094.3152,99.7162
2095.2793,99.7147
2096.2437,99.7154
2097.2078,99.7173
2098.1721,99.7194
2099.1362,99.7208
2100.1006,99.7208
2101.0647,99.7206
2102.0291,99.7202
2102.9932,99.7199
2103.9575,99.7196
2104.9216,99.7187
2105.8860,99.7168
2106.8501,99.7133
2107.8145,99.7083
2108.7786,99.7023
2109.7429,99.6965
2110.7070,99.6919
2111.6714,99.6891
2112.6355,99.6883
2113.5999,99.6893
2114.5640,99.6915
2115.5283,99.6944
2116.4924,99.6974
2117.4568,99.7001
2118.4209,99.7018
2119.3853,99.7023
2120.3494,99.7014
2121.3137,99.6992
2122.2778,99.696
2123.2422,99.6923
2124.2063,99.6885
2125.1707,99.6851
2126.1348,99.6826
2127.0991,99.6813
2128.0632,99.6815
2129.0276,99.6828
2129.9917,99.6847
2130.9561,99.6861
2131.9202,99.6861
2132.8845,99.6842
2133.8486,99.6809
2134.8130,99.6777
2135.7771,99.6759
2136.7415,99.6766
2137.7056,99.6795
2138.6699,99.6835
2139.6340,99.6871
2140.5984,99.6892
2141.5625,99.6902
2142.5269,99.691
2143.4910,99.6933
2144.4553,99.6976
2145.4194,99.7035
2146.3838,99.7095
2147.3479,99.7139
2148.3123,99.7155
2149.2764,99.7141
2150.2407,99.7107
2151.2048,99.707
2152.1692,99.7047
2153.1333,99.7053
2154.0977,99.7091
2155.0618,99.7153
2156.0261,99.7224
2156.9902,99.7286
2157.9546,99.7327
2158.9187,99.7345
2159.8831,99.735
2160.8472,99.7358
2161.8115,99.7381
2162.7756,99.7419
2163.7400,99.7463
2164.7041,99.7499
2165.6685,99.7514
2166.6326,99.7503
2167.5969,99.7473
2168.5610,99.7434
2169.5254,99.7401
2170.4895,99.7383
2171.4539,99.738
2172.4180,99.7388
2173.3823,99.7399
2174.3464,99.7409
2175.3108,99.7421
2176.2749,99.7442
2177.2393,99.7476
2178.2034,99.7521
2179.1677,99.7567
2180.1318,99.7597
2181.0962,99.7596
2182.0603,99.756
2183.0247,99.7495
2183.9888,99.742
2184.9531,99.7354
2185.9172,99.7316
2186.8816,99.7313
2187.8457,99.734
2188.8101,99.7384
2189.7742,99.7426
2190.7385,99.7453
2191.7026,99.7456
2192.6670,99.7439
2193.6311,99.7411
2194.5955,99.7384
2195.5596,99.7364
2196.5239,99.7349
2197.4880,99.733
2198.4524,99.7297
2199.4165,99.7247
2200.3809,99.7186
2201.3450,99.7127
2202.3093,99.7082
2203.2734,99.7054
2204.2378,99.7038
2205.2019,99.7027
2206.1663,99.7015
2207.1304,99.7004
2208.0947,99.6998
2209.0588,99.6995
2210.0232,99.6983
2210.9873,99.6947
2211.9517,99.6874
2212.9158,99.677
2213.8801,99.6653
2214.8442,99.6552
2215.8086,99.6487
2216.7727,99.646
2217.7371,99.6456
2218.7012,99.6453
2219.6655,99.6433
2220.6296,99.6393
2221.5940,99.6343
2222.5581,99.6297
2223.5225,99.6262
2224.4866,99.6235
2225.4509,99.6205
2226.4150,99.6158
2227.3794,99.6091
2228.3435,99.6006
2229.3079,99.591
2230.2720,99.5815
2231.2363,99.5725
2232.2004,99.5642
2233.1648,99.5566
2234.1289,99.5496
2235.0933,99.5436
2236.0574,99.5388
2237.0217,99.535
2237.9858,99.5317
2238.9502,99.528
2239.9143,99.525
2240.8787,99.5274
2241.8428,99.5287
2242.8071,99.5291
2243.7712,99.5291
2244.7356,99.5287
2245.6997,99.5277
2246.6641,99.5263
2247.6282,99.5249
2248.5925,99.5241
2249.5566,99.524
2250.5210,99.5245
2251.4851,99.525
2252.4495,99.525
2253.4136,99.5241
2254.3779,99.5226
2255.3420,99.5208
2256.3064,99.5192
2257.2705,99.5183
2258.2349,99.5177
2259.1990,99.517
2260.1633,99.5153
2261.1274,99.5121
2262.0918,99.5075
2263.0559,99.5027
2264.0203,99.4996
2264.9844,99.4998
2265.9487,99.5039
2266.9128,99.5105
2267.8772,99.5173
2268.8413,99.5216
2269.8057,99.5224
2270.7698,99.5209
2271.7341,99.5191
2272.6982,99.5193
2273.6626,99.5224
2274.6267,99.5282
2275.5911,99.5355
2276.5552,99.544
2277.5195,99.5537
2278.4836,99.5648
2279.4480,99.577
2280.4121,99.5888
2281.3765,99.5978
2282.3406,99.602
2283.3049,99.5999
2284.2690,99.5917
2285.2334,99.5785
2286.1975,99.5623
2287.1619,99.5447
2288.1260,99.5264
2289.0903,99.507
2290.0544,99.4857
2291.0188,99.4625
2291.9829,99.4389
2292.9473,99.418
2293.9114,99.4032
2294.8757,99.3967
2295.8398,99.398
2296.8042,99.4054
2297.7683,99.417
2298.7327,99.4325
2299.6968,99.4532
2300.6611,99.4806
2301.6252,99.5142
2302.5896,99.5507
2303.5537,99.5844
2304.5181,99.6094
2305.4822,99.6229
2306.4465,99.6268
2307.4106,99.6285
2308.3750,99.6381
2309.3391,99.6644
2310.3035,99.7103
2311.2676,99.771
2312.2319,99.8353
2313.1960,99.8914
2314.1604,99.9326
2315.1245,99.9601
2316.0889,99.9819
2317.0530,100.008
2318.0173,100.044
2318.9814,100.088
2319.9458,100.126
2320.9099,100.137
2321.8743,100.099
2322.8384,100.003
2323.8027,99.8629
2324.7668,99.7111
2325.7312,99.5884
2326.6953,99.5256
2327.6597,99.531
2328.6238,99.5856
2329.5881,99.651
2330.5522,99.6858
2331.5166,99.6662
2332.4807,99.5954
2333.4451,99.4982
2334.4092,99.4041
2335.3735,99.3318
2336.3376,99.2819
2337.3020,99.2405
2338.2661,99.1886
2339.2305,99.1159
2340.1946,99.0337
2341.1589,98.9831
2342.1230,99.0275
2343.0874,99.2039
2344.0515,99.4504
2345.0159,99.6209
2345.9800,99.619
2346.9443,99.48
2347.9084,99.3147
2348.8728,99.2198
2349.8369,99.2302
2350.8013,99.3134
2351.7654,99.3926
2352.7297,99.3959
2353.6938,99.3074
2354.6582,99.1706
2355.6223,99.0297
2356.5867,98.8914
2357.5508,98.7511
2358.5151,98.629
2359.4792,98.5597
2360.4436,98.5575
2361.4077,98.6073
2362.3721,98.6914
2363.3362,98.8091
2364.3005,98.9693
2365.2646,99.1703
2366.2290,99.3946
2367.1931,99.6188
2368.1575,99.8255
2369.1216,100.007
2370.0859,100.163
2371.0500,100.295
2372.0144,100.403
2372.9785,100.481
2373.9429,100.524
2374.9070,100.523
2375.8713,100.482
2376.8354,100.405
2377.7998,100.302
2378.7639,100.188
2379.7283,100.08
2380.6924,99.9877
2381.6567,99.9166
2382.6208,99.8684
2383.5852,99.841
2384.5493,99.83
2385.5137,99.8303
2386.4778,99.8366
2387.4421,99.8448
2388.4063,99.8525
2389.3706,99.8588
2390.3347,99.8641
2391.2991,99.8692
2392.2632,99.8744
2393.2275,99.88
2394.1917,99.8854
2395.1560,99.8905
2396.1201,99.8952
2397.0845,99.8998
2398.0486,99.9041
2399.0129,99.9078
2399.9771,99.9103
2400.9414,99.9113
2401.9055,99.9108
2402.8699,99.9099
2403.8340,99.9102
2404.7983,99.9132
2405.7625,99.919
2406.7268,99.9261
2407.6909,99.9322
2408.6553,99.9349
2409.6194,99.9338
2410.5837,99.93
2411.5479,99.9262
2412.5122,99.9248
2413.4763,99.9268
2414.4407,99.9313
2415.4048,99.9365
2416.3691,99.941
2417.3333,99.9446
2418.2976,99.9478
2419.2617,99.951
2420.2261,99.9538
2421.1902,99.9549
2422.1545,99.9534
2423.1187,99.9499
2424.0830,99.9458
2425.0471,99.9432
2426.0115,99.9432
2426.9756,99.9455
2427.9399,99.9489
2428.9041,99.9525
2429.8684,99.9561
2430.8325,99.96
2431.7969,99.9641
2432.7610,99.9677
2433.7253,99.9697
2434.6895,99.9695
2435.6538,99.9677
2436.6179,99.9662
2437.5823,99.9664
2438.5464,99.9687
2439.5107,99.9721
2440.4749,99.9751
2441.4392,99.977
2442.4033,99.9785
2443.3677,99.9807
2444.3318,99.9845
2445.2961,99.9894
2446.2603,99.9935
2447.2246,99.995
2448.1887,99.9929
2449.1531,99.988
2450.1172,99.9822
2451.0815,99.9777
2452.0457,99.9757
2453.0100,99.9759
2453.9741,99.977
2454.9385,99.977
2455.9026,99.9749
2456.8669,99.9705
2457.8311,99.965
2458.7954,99.96
2459.7595,99.9568
2460.7239,99.9559
2461.6880,99.9566
2462.6523,99.9582
2463.6165,99.9599
2464.5808,99.9613
2465.5449,99.9619
2466.5093,99.9609
2467.4734,99.9577
2468.4377,99.9518
2469.4019,99.9439
2470.3662,99.9355
2471.3303,99.929
2472.2947,99.9263
2473.2588,99.9279
2474.2231,99.9329
2475.1873,99.9392
2476.1516,99.9442
2477.1157,99.9465
2478.0801,99.9457
2479.0442,99.9429
2480.0085,99.9398
2480.9727,99.938
2481.9370,99.9379
2482.9011,99.9386
2483.8655,99.9389
2484.8296,99.9375
2485.7939,99.9344
2486.7581,99.9307
2487.7224,99.9283
2488.6865,99.9288
2489.6509,99.9322
2490.6150,99.9372
2491.5793,99.9411
2492.5435,99.9416
2493.5078,99.9381
2494.4719,99.9321
2495.4363,99.9265
2496.4004,99.9243
2497.3647,99.9266
2498.3289,99.9323
2499.2932,99.9384
2500.2573,99.9424
2501.2217,99.9427
2502.1858,99.94
2503.1501,99.9363
2504.1143,99.9333
2505.0786,99.9322
2506.0427,99.933
2507.0071,99.9347
2507.9712,99.936
2508.9355,99.9358
2509.8997,99.9332
2510.8640,99.9281
2511.8281,99.9216
2512.7925,99.9157
2513.7566,99.9127
2514.7209,99.9144
2515.6851,99.9208
2516.6494,99.9302
2517.6135,99.9394
2518.5779,99.9458
2519.5420,99.9482
2520.5063,99.9469
2521.4705,99.9438
2522.4348,99.941
2523.3989,99.9393
2524.3633,99.939
2525.3274,99.9391
2526.2917,99.9391
2527.2559,99.9387
2528.2202,99.9385
2529.1843,99.9389
2530.1487,99.9398
2531.1128,99.9406
2532.0771,99.9403
2533.0413,99.9387
2534.0056,99.9362
2534.9697,99.9343
2535.9341,99.9342
2536.8982,99.9366
2537.8625,99.9406
2538.8267,99.9446
2539.7910,99.9469
2540.7551,99.947
2541.7195,99.9461
2542.6836,99.9462
2543.6479,99.9492
2544.6121,99.9554
2545.5764,99.9636
2546.5405,99.9714
2547.5049,99.9769
2548.4690,99.9795
2549.4333,99.9803
2550.3975,99.981
2551.3618,99.9828
2552.3259,99.9859
2553.2903,99.9894
2554.2544,99.9925
2555.2188,99.9949
2556.1829,99.9972
2557.1472,100
2558.1113,100.005
2559.0757,100.009
2560.0398,100.013
2561.0042,100.013
2561.9683,100.009
2562.9326,100.001
2563.8967,99.9912
2564.8611,99.9834
2565.8252,99.9808
2566.7896,99.9849
2567.7537,99.9946
2568.7180,100.006
2569.6821,100.016
2570.6465,100.02
2571.6106,100.017
2572.5750,100.01
2573.5391,100.001
2574.5034,99.9937
2575.4675,99.9901
2576.4319,99.9902
2577.3960,99.9927
2578.3604,99.9959
2579.3245,99.9987
2580.2888,100.001
2581.2529,100.004
2582.2173,100.007
2583.1814,100.01
2584.1458,100.014
2585.1099,100.015
2586.0742,100.013
2587.0383,100.008
2588.0027,100
2588.9668,99.9923
2589.9312,99.9851
2590.8953,99.9793
2591.8596,99.9748
2592.8237,99.9708
2593.7881,99.9669
2594.7522,99.9636
2595.7166,99.9615
2596.6807,99.9609
2597.6450,99.9617
2598.6091,99.963
2599.5735,99.9637
2600.5376,99.963
2601.5020,99.9605
2602.4661,99.9565
2603.4304,99.9517
2604.3945,99.9472
2605.3589,99.944
2606.3230,99.943
2607.2874,99.9442
2608.2515,99.9469
2609.2158,99.9498
2610.1799,99.9511
2611.1443,99.9498
2612.1084,99.9458
2613.0728,99.9402
2614.0369,99.9344
2615.0012,99.9296
2615.9653,99.9261
2616.9297,99.9234
2617.8938,99.9205
2618.8582,99.9169
2619.8223,99.9126
2620.7866,99.9078
2621.7507,99.903
2622.7151,99.8985
2623.6792,99.8944
2624.6436,99.8913
2625.6077,99.8897
2626.5720,99.8901
2627.5361,99.8922
2628.5005,99.8942
2629.4646,99.8943
2630.4290,99.8908
2631.3931,99.8841
2632.3574,99.8764
2633.3215,99.8705
2634.2859,99.8685
2635.2500,99.8703
2636.2144,99.8739
2637.1785,99.8764
2638.1428,99.8765
2639.1069,99.8743
2640.0713,99.872
2641.0354,99.8715
2641.9998,99.8738
2642.9639,99.8785
2643.9282,99.8841
2644.8923,99.889
2645.8567,99.8919
2646.8208,99.8921
2647.7852,99.8892
2648.7493,99.8836
2649.7136,99.8764
2650.6777,99.8695
2651.6421,99.865
2652.6062,99.8649
2653.5706,99.8698
2654.5347,99.8791
2655.4990,99.8906
2656.4631,99.9018
2657.4275,99.9106
2658.3916,99.9156
2659.3560,99.9172
2660.3201,99.9165
2661.2844,99.9156
2662.2485,99.9164
2663.2129,99.9205
2664.1770,99.9284
2665.1414,99.9399
2666.1055,99.9536
2667.0698,99.9676
2668.0339,99.9797
2668.9983,99.9887
2669.9624,99.9945
2670.9268,99.9986
2671.8909,100.003
2672.8552,100.011
2673.8193,100.022
2674.7837,100.036
2675.7478,100.049
2676.7122,100.058
2677.6763,100.06
2678.6406,100.055
2679.6047,100.047
2680.5691,100.039
2681.5332,100.034
2682.4976,100.033
2683.4617,100.036
2684.4260,100.04
2685.3901,100.044
2686.3545,100.045
2687.3186,100.045
2688.2830,100.044
2689.2471,100.043
2690.2114,100.044
2691.1755,100.046
2692.1399,100.048
2693.1040,100.05
2694.0684,100.05
2695.0325,100.047
2695.9968,100.043
2696.9609,100.038
2697.9253,100.034
2698.8894,100.033
2699.8538,100.032
2700.8179,100.031
2701.7822,100.029
2702.7463,100.024
2703.7107,100.019
2704.6748,100.013
2705.6392,100.006
2706.6033,99.9988
2707.5676,99.9895
2708.5317,99.9783
2709.4961,99.9664
2710.4602,99.9557
2711.4246,99.9473
2712.3887,99.9411
2713.3530,99.9355
2714.3171,99.9285
2715.2815,99.9185
2716.2456,99.9051
2717.2100,99.8895
2718.1741,99.8733
2719.1384,99.8585
2720.1025,99.8461
2721.0669,99.8361
2722.0310,99.8276
2722.9954,99.819
2723.9595,99.8092
2724.9238,99.7977
2725.8879,99.7851
2726.8523,99.7723
2727.8164,99.7602
2728.7808,99.7494
2729.7449,99.7403
2730.7092,99.7329
2731.6733,99.727
2732.6377,99.7222
2733.6018,99.717
2734.5662,99.7095
2735.5303,99.698
2736.4946,99.682
2737.4587,99.6626
2738.4231,99.6425
2739.3872,99.6249
2740.3516,99.612
2741.3157,99.6048
2742.2800,99.5949
2743.2441,99.5804
2744.2085,99.5678
2745.1726,99.5549
2746.1370,99.5396
2747.1011,99.5201
2748.0654,99.4954
2749.0295,99.466
2749.9939,99.4342
2750.9580,99.4033
2751.9224,99.3759
2752.8865,99.3527
2753.8508,99.3318
2754.8149,99.3092
2755.7793,99.2809
2756.7434,99.2449
2757.7078,99.2024
2758.6719,99.1571
2759.6362,99.1136
2760.6003,99.0754
2761.5647,99.0431
2762.5288,99.0149
2763.4932,98.9875
2764.4573,98.9577
2765.4216,98.924
2766.3857,98.8871
2767.3501,98.8493
2768.3142,98.8131
2769.2786,98.7794
2770.2427,98.7465
2771.2070,98.7105
2772.1711,98.6676
2773.1355,98.6161
2774.0996,98.5574
2775.0640,98.4959
2776.0281,98.4366
2776.9924,98.3821
2777.9565,98.3319
2778.9209,98.2826
2779.8850,98.2304
2780.8494,98.1729
2781.8135,98.1108
2782.7778,98.0468
2783.7419,97.9848
2784.7063,97.9273
2785.6704,97.8751
2786.6348,97.827
2787.5989,97.78
2788.5632,97.7312
2789.5273,97.6787
2790.4917,97.6227
2791.4558,97.5647
2792.4202,97.5072
2793.3843,97.4516
2794.3486,97.3977
2795.3127,97.3439
2796.2771,97.2883
2797.2412,97.2298
2798.2056,97.1687
2799.1697,97.1061
2800.1340,97.0428
2801.0981,96.9793
2802.0625,96.9155
2803.0266,96.8515
2803.9910,96.788
2804.9551,96.7256
2805.9194,96.664
2806.8835,96.6014
2807.8479,96.5342
2808.8120,96.4589
2809.7764,96.3734
2810.7405,96.2783
2811.7048,96.1763
2812.6689,96.0712
2813.6333,95.9658
2814.5974,95.8607
2815.5618,95.7544
2816.5259,95.6441
2817.4902,95.5266
2818.4543,95.4001
2819.4187,95.2637
2820.3828,95.117
2821.3472,94.9598
2822.3113,94.7917
2823.2756,94.612
2824.2397,94.4203
2825.2041,94.2172
2826.1682,94.0041
2827.1326,93.7823
2828.0967,93.5524
2829.0610,93.3138
2830.0251,93.0655
2830.9895,92.8071
2831.9536,92.5395
2832.9180,92.2653
2833.8821,91.9878
2834.8464,91.7094
2835.8105,91.4309
2836.7749,91.1521
2837.7390,90.8729
2838.7034,90.595
2839.6675,90.3214
2840.6318,90.0545
2841.5959,89.7942
2842.5603,89.5363
2843.5244,89.2748
2844.4888,89.005
2845.4529,88.7283
2846.4172,88.4534
2847.3813,88.1948
2848.3457,87.967
2849.3098,87.7786
2850.2742,87.6285
2851.2383,87.5071
2852.2026,87.4011
2853.1667,87.2989
2854.1311,87.1942
2855.0952,87.0861
2856.0596,86.9764
2857.0237,86.8663
2857.9880,86.7548
2858.9521,86.6388
2859.9165,86.5147
2860.8806,86.3796
2861.8450,86.2331
2862.8091,86.0766
2863.7734,85.9135
2864.7375,85.7478
2865.7019,85.5832
2866.6660,85.4212
2867.6304,85.2613
2868.5945,85.1015
2869.5588,84.9398
2870.5229,84.776
2871.4873,84.6124
2872.4514,84.452
2873.4158,84.2976
2874.3799,84.1498
2875.3442,84.0073
2876.3083,83.8681
2877.2727,83.7301
2878.2368,83.5926
2879.2012,83.4564
2880.1653,83.3245
2881.1296,83.2017
2882.0938,83.0938
2883.0581,83.0065
2884.0222,82.9432
2884.9866,82.9033
2885.9507,82.8821
2886.9150,82.8712
2887.8792,82.8614
2888.8435,82.8452
2889.8076,82.8194
2890.7720,82.7858
2891.7361,82.7494
2892.7004,82.714
2893.6646,82.6776
2894.6289,82.6306
2895.5930,82.559
2896.5574,82.4524
2897.5215,82.3117
2898.4858,82.1524
2899.4500,81.999
2900.4143,81.8741
2901.3784,81.7876
2902.3428,81.7321
2903.3069,81.6878
2904.2712,81.632
2905.2354,81.5491
2906.1997,81.4342
2907.1638,81.2905
2908.1282,81.1245
2909.0923,80.9416
2910.0566,80.7452
2911.0208,80.5383
2911.9851,80.3251
2912.9492,80.1111
2913.9136,79.902
2914.8777,79.7025
2915.8420,79.5146
2916.8062,79.3387
2917.7705,79.174
2918.7346,79.0202
2919.6990,78.8779
2920.6631,78.7488
2921.6274,78.635
2922.5916,78.5374
2923.5559,78.4556
2924.5200,78.3876
2925.4844,78.3315
2926.4485,78.2865
2927.4128,78.2528
2928.3770,78.2315
2929.3413,78.2228
2930.3054,78.2261
2931.2698,78.2407
2932.2339,78.2671
2933.1982,78.3072
2934.1624,78.3643
2935.1267,78.4412
2936.0908,78.539
2937.0552,78.6567
2938.0193,78.7917
2938.9836,78.942
2939.9478,79.1069
2940.9121,79.2877
2941.8762,79.4865
2942.8406,79.7036
2943.8047,79.9359
2944.7690,80.1765
2945.7332,80.4162
2946.6975,80.6461
2947.6616,80.8607
2948.6260,81.0592
2949.5901,81.2441
2950.5544,81.4194
2951.5186,81.5875
2952.4829,81.7484
2953.4470,81.9009
2954.4114,82.0445
2955.3755,82.1811
2956.3398,82.3151
2957.3040,82.4515
2958.2683,82.5935
2959.2324,82.7403
2960.1968,82.8879
2961.1609,83.0299
2962.1252,83.1616
2963.0894,83.2814
2964.0537,83.3916
2965.0178,83.4967
2965.9822,83.6016
2966.9463,83.7099
2967.9106,83.8237
2968.8748,83.9447
2969.8391,84.0756
2970.8032,84.2194
2971.7676,84.3784
2972.7317,84.5527
2973.6960,84.7393
2974.6602,84.9338
2975.6245,85.1314
2976.5886,85.329
2977.5530,85.5258
2978.5171,85.7221
2979.4814,85.9179
2980.4456,86.1111
2981.4099,86.2959
2982.3740,86.4637
2983.3384,86.6062
2984.3025,86.721
2985.2668,86.8174
2986.2310,86.9167
2987.1953,87.0471
2988.1594,87.232
2989.1238,87.4775
2990.0879,87.7683
2991.0522,88.0724
2992.0164,88.3552
2992.9807,88.5933
2993.9448,88.7824
2994.9092,88.9347
2995.8733,89.07
2996.8376,89.2054
2997.8018,89.3499
2998.7661,89.5046
2999.7302,89.6671
3000.6946,89.8344
3001.6587,90.0053
3002.6230,90.1797
3003.5872,90.3583
3004.5515,90.5414
3005.5156,90.729
3006.4800,90.9193
3007.4441,91.1087
3008.4084,91.2926
3009.3726,91.4671
3010.3369,91.6315
3011.3010,91.7883
3012.2654,91.9424
3013.2295,92.0969
3014.1938,92.2509
3015.1580,92.3995
3016.1223,92.5361
3017.0864,92.6565
3018.0508,92.7604
3019.0149,92.8515
3019.9792,92.9352
3020.9434,93.0157
3021.9077,93.0949
3022.8718,93.1725
3023.8362,93.247
3024.8003,93.317
3025.7646,93.3814
3026.7288,93.4394
3027.6931,93.491
3028.6572,93.5367
3029.6216,93.5776
3030.5857,93.6149
3031.5500,93.6497
3032.5142,93.6823
3033.4785,93.7122
3034.4426,93.739
3035.4070,93.7626
3036.3711,93.7833
3037.3354,93.8014
3038.2996,93.8161
3039.2639,93.8256
3040.2280,93.827
3041.1924,93.8176
3042.1565,93.7968
3043.1208,93.7669
3044.0850,93.7329
3045.0493,93.7008
3046.0134,93.6744
3046.9778,93.6538
3047.9419,93.6343
3048.9063,93.6089
3049.8704,93.5722
3050.8347,93.5229
3051.7988,93.4653
3052.7632,93.4061
3053.7273,93.3517
3054.6917,93.3053
3055.6558,93.2665
3056.6201,93.2323
3057.5842,93.1989
3058.5486,93.1631
3059.5127,93.1221
3060.4771,93.0745
3061.4412,93.0202
3062.4055,92.9613
3063.3696,92.902
3064.3340,92.8467
3065.2981,92.7982
3066.2625,92.7557
3067.2266,92.7149
3068.1909,92.671
3069.1550,92.621
3070.1194,92.5648
3071.0835,92.5047
3072.0479,92.4432
3073.0120,92.3818
3073.9763,92.3213
3074.9404,92.262
3075.9048,92.2052
3076.8689,92.1522
3077.8333,92.104
3078.7974,92.0598
3079.7617,92.017
3080.7258,91.9723
3081.6902,91.923
3082.6543,91.8684
3083.6187,91.809
3084.5828,91.747
3085.5471,91.6844
3086.5112,91.623
3087.4756,91.5638
3088.4397,91.5071
3089.4041,91.4524
3090.3682,91.3989
3091.3325,91.3453
3092.2966,91.2899
3093.2610,91.2306
3094.2251,91.1653
3095.1895,91.0926
3096.1536,91.0134
3097.1179,90.9307
3098.0820,90.8494
3099.0464,90.7738
3100.0105,90.7057
3100.9749,90.6436
3101.9390,90.5838
3102.9033,90.5231
3103.8674,90.4601
3104.8318,90.3955
3105.7959,90.3301
3106.7603,90.2631
3107.7244,90.1922
3108.6887,90.1145
3109.6528,90.0292
3110.6172,89.9383
3111.5813,89.846
3112.5457,89.7563
3113.5098,89.6712
3114.4741,89.5906
3115.4382,89.5131
3116.4026,89.4379
3117.3667,89.3653
3118.3311,89.2958
3119.2952,89.2291
3120.2595,89.1635
3121.2236,89.0961
3122.1880,89.0251
3123.1521,88.9497
3124.1165,88.871
3125.0806,88.7902
3126.0449,88.7074
3127.0090,88.6219
3127.9734,88.5327
3128.9375,88.4405
3129.9019,88.3479
3130.8660,88.2586
3131.8303,88.1759
3132.7944,88.1003
3133.7588,88.0294
3134.7229,87.9593
3135.6873,87.8863
3136.6514,87.809
3137.6157,87.7285
3138.5798,87.6468
3139.5442,87.5656
3140.5083,87.4853
3141.4727,87.4048
3142.4368,87.3221
3143.4011,87.2356
3144.3652,87.1445
3145.3296,87.0496
3146.2937,86.9534
3147.2581,86.8594
3148.2222,86.7708
3149.1865,86.6882
3150.1506,86.6094
3151.1150,86.5297
3152.0791,86.4445
3153.0435,86.3517
3154.0076,86.2531
3154.9719,86.1527
3155.9360,86.0548
3156.9004,85.9612
3157.8645,85.8709
3158.8289,85.7817
3159.7930,85.6919
3160.7573,85.6022
3161.7214,85.5143
3162.6858,85.4293
3163.6499,85.3463
3164.6143,85.2624
3165.5784,85.1745
3166.5427,85.0811
3167.5068,84.9832
3168.4712,84.8837
3169.4353,84.8023
3170.3997,84.7053
3171.3638,84.609
3172.3281,84.5122
3173.2922,84.4142
3174.2566,84.3157
3175.2207,84.2182
3176.1851,84.1229
3177.1492,84.0299
3178.1135,83.9382
3179.0776,83.8462
3180.0420,83.7536
3181.0061,83.6616
3181.9705,83.5725
3182.9346,83.4887
3183.8989,83.4107
3184.8630,83.3359
3185.8274,83.2594
3186.7915,83.1761
3187.7559,83.0827
3188.7200,82.9802
3189.6843,82.8731
3190.6484,82.7672
3191.6128,82.6671
3192.5769,82.5742
3193.5413,82.4873
3194.5054,82.4034
3195.4697,82.3199
3196.4338,82.2354
3197.3982,82.1493
3198.3623,82.0614
3199.3267,81.9722
3200.2908,81.8831
3201.2551,81.7961
3202.2192,81.7132
3203.1836,81.6347
3204.1477,81.5591
3205.1121,81.4829
3206.0762,81.4029
3207.0405,81.3179
3208.0046,81.229
3208.9690,81.1387
3209.9331,81.0489
3210.8975,80.9598
3211.8616,80.8713
3212.8259,80.7832
3213.7900,80.6972
3214.7544,80.6155
3215.7185,80.54
3216.6829,80.4703
3217.6470,80.4037
3218.6113,80.3365
3219.5754,80.2656
3220.5398,80.1903
3221.5039,80.112
3222.4683,80.0335
3223.4324,79.957
3224.3967,79.883
3225.3608,79.8106
3226.3252,79.7381
3227.2893,79.6644
3228.2537,79.5901
3229.2178,79.5167
3230.1821,79.446
3231.1462,79.3789
3232.1106,79.315
3233.0747,79.2533
3234.0391,79.1924
3235.0032,79.1317
3235.9675,79.0706
3236.9316,79.0081
3237.8960,78.9429
3238.8601,78.8739
3239.8245,78.8013
3240.7886,78.727
3241.7529,78.6544
3242.7170,78.5873
3243.6814,78.528
3244.6455,78.4764
3245.6099,78.4302
3246.5740,78.3848
3247.5383,78.3358
3248.5024,78.2801
3249.4668,78.2171
3250.4309,78.1484
3251.3953,78.0779
3252.3594,78.0096
3253.3237,77.947
3254.2878,77.8915
3255.2522,77.8427
3256.2163,77.7993
3257.1807,77.7597
3258.1448,77.722
3259.1091,77.6844
3260.0732,77.6444
3261.0376,77.5993
3262.0017,77.547
3262.9661,77.487
3263.9302,77.4204
3264.8945,77.3497
3265.8586,77.2778
3266.8230,77.2081
3267.7871,77.143
3268.7515,77.085
3269.7156,77.0354
3270.6799,76.9947
3271.6440,76.9619
3272.6084,76.9355
3273.5725,76.9133
3274.5369,76.893
3275.5010,76.8724
3276.4653,76.849
3277.4294,76.8201
3278.3938,76.7838
3279.3579,76.7402
3280.3223,76.6924
3281.2864,76.6451
3282.2507,76.6029
3283.2148,76.5669
3284.1792,76.5343
3285.1433,76.4995
3286.1077,76.4575
3287.0718,76.4069
3288.0361,76.3505
3289.0002,76.2929
3289.9646,76.2383
3290.9287,76.1886
3291.8931,76.1443
3292.8572,76.1066
3293.8215,76.0776
3294.7856,76.0584
3295.7500,76.0469
3296.7141,76.0363
3297.6785,76.0179
3298.6426,75.9854
3299.6069,75.9393
3300.5710,75.8863
3301.5354,75.8355
3302.4995,75.7934
3303.4639,75.7609
3304.4280,75.7347
3305.3923,75.7108
3306.3564,75.6884
3307.3208,75.67
3308.2849,75.6595
3309.2493,75.6582
3310.2134,75.6637
3311.1777,75.6705
3312.1418,75.6732
3313.1062,75.6689
3314.0703,75.658
3315.0347,75.6428
3315.9988,75.6256
3316.9631,75.6071
3317.9272,75.587
3318.8916,75.5648
3319.8557,75.5411
3320.8201,75.5182
3321.7842,75.4984
3322.7485,75.483
3323.7126,75.4715
3324.6770,75.4624
3325.6411,75.4542
3326.6055,75.4468
3327.5696,75.4407
3328.5339,75.4353
3329.4980,75.4283
3330.4624,75.4168
3331.4265,75.3994
3332.3909,75.3788
3333.3550,75.3609
3334.3193,75.352
3335.2834,75.3544
3336.2478,75.3642
3337.2119,75.3733
3338.1763,75.3739
3339.1404,75.3636
3340.1047,75.3458
3341.0688,75.3272
3342.0332,75.3134
3342.9973,75.3063
3343.9617,75.3047
3344.9258,75.3062
3345.8901,75.3097
3346.8542,75.3166
3347.8186,75.3288
3348.7827,75.3472
3349.7471,75.3707
3350.7112,75.3962
3351.6755,75.4201
3352.6396,75.4394
3353.6040,75.4522
3354.5681,75.4585
3355.5325,75.4603
3356.4966,75.461
3357.4609,75.4647
3358.4250,75.474
3359.3894,75.4886
3360.3535,75.5052
3361.3179,75.5192
3362.2820,75.5273
3363.2463,75.5296
3364.2104,75.5307
3365.1748,75.5372
3366.1389,75.5548
3367.1033,75.5855
3368.0674,75.6261
3369.0317,75.67
3369.9958,75.7096
3370.9602,75.7395
3371.9243,75.7578
3372.8887,75.7674
3373.8528,75.7744
3374.8171,75.7861
3375.7813,75.8084
3376.7456,75.8438
3377.7097,75.8897
3378.6741,75.9406
3379.6382,75.9901
3380.6025,76.0339
3381.5667,76.0706
3382.5310,76.1013
3383.4951,76.128
3384.4595,76.1512
3385.4236,76.1708
3386.3879,76.1872
3387.3521,76.2035
3388.3164,76.2255
3389.2805,76.2592
3390.2449,76.3079
3391.2090,76.369
3392.1733,76.4354
3393.1375,76.499
3394.1018,76.5558
3395.0659,76.6072
3396.0303,76.658
3396.9944,76.7119
3397.9587,76.7685
3398.9229,76.8238
3399.8872,76.8739
3400.8513,76.9181
3401.8157,76.9597
3402.7798,77.0042
3403.7441,77.055
3404.7083,77.1125
3405.6726,77.1738
3406.6367,77.236
3407.6011,77.2973
3408.5652,77.3581
3409.5295,77.4193
3410.4937,77.4811
3411.4580,77.5423
3412.4221,77.6001
3413.3865,77.6522
3414.3506,77.6979
3415.3149,77.7394
3416.2791,77.7815
3417.2434,77.8311
3418.2075,77.8946
3419.1719,77.9753
3420.1360,78.0706
3421.1003,78.1723
3422.0645,78.2699
3423.0288,78.355
3423.9929,78.4253
3424.9573,78.4851
3425.9214,78.5427
3426.8857,78.6061
3427.8499,78.6801
3428.8142,78.7638
3429.7783,78.852
3430.7427,78.9387
3431.7068,79.0208
3432.6711,79.0997
3433.6353,79.1798
3434.5996,79.2652
3435.5637,79.3562
3436.5281,79.449
3437.4922,79.537
3438.4565,79.6151
3439.4207,79.6814
3440.3850,79.7393
3441.3491,79.7957
3442.3135,79.8591
3443.2776,79.936
3444.2419,80.0292
3445.2061,80.1368
3446.1704,80.2521
3447.1345,80.3661
3448.0989,80.4718
3449.0630,80.5668
3450.0273,80.6542
3450.9915,80.7393
3451.9558,80.8263
3452.9199,80.9155
3453.8843,81.0041
3454.8484,81.0882
3455.8127,81.1665
3456.7769,81.2415
3457.7412,81.3189
3458.7053,81.4048
3459.6697,81.5018
3460.6338,81.6074
3461.5981,81.715
3462.5623,81.8174
3463.5266,81.9116
3464.4907,82.0004
3465.4551,82.0913
3466.4192,82.1911
3467.3835,82.3013
3468.3477,82.4161
3469.3120,82.5257
3470.2761,82.6227
3471.2405,82.707
3472.2046,82.7857
3473.1689,82.8689
3474.1331,82.9635
3475.0974,83.069
3476.0615,83.1791
3477.0259,83.2867
3477.9900,83.3884
3478.9543,83.4859
3479.9185,83.583
3480.8828,83.6827
3481.8469,83.7852
3482.8113,83.8892
3483.7754,83.9949
3484.7397,84.1051
3485.7039,84.2236
3486.6682,84.3516
3487.6323,84.4849
3488.5967,84.6151
3489.5608,84.7335
3490.5251,84.8364
3491.4893,84.9279
3492.4536,85.0178
3493.4177,85.1171
3494.3821,85.2311
3495.3462,85.3561
3496.3105,85.4802
3497.2747,85.5916
3498.2390,85.6871
3499.2031,85.7755
3500.1675,85.8733
3501.1316,85.995
3502.0959,86.143
3503.0601,86.3034
3504.0244,86.4549
3504.9885,86.5852
3505.9529,86.6977
3506.9170,86.8066
3507.8813,86.9251
3508.8455,87.0564
3509.8098,87.1934
3510.7739,87.3247
3511.7383,87.4458
3512.7024,87.5612
3513.6667,87.6803
3514.6309,87.808
3515.5952,87.9414
3516.5593,88.0716
3517.5237,88.1915
3518.4878,88.3008
3519.4521,88.4068
3520.4163,88.5193
3521.3806,88.644
3522.3447,88.7802
3523.3091,88.9224
3524.2732,89.0654
3525.2375,89.2087
3526.2017,89.3552
3527.1660,89.5062
3528.1301,89.6577
3529.0945,89.801
3530.0586,89.9297
3531.0229,90.0449
3531.9871,90.1561
3532.9514,90.2756
3533.9155,90.4117
3534.8799,90.5641
3535.8440,90.7238
3536.8083,90.8767
3537.7725,91.0117
3538.7368,91.1257
3539.7009,91.2245
3540.6653,91.3189
3541.6294,91.4218
3542.5938,91.5446
3543.5579,91.6944
3544.5222,91.8685
3545.4863,92.0512
3546.4507,92.2204
3547.4148,92.3621
3548.3792,92.4801
3549.3433,92.5913
3550.3076,92.7153
3551.2717,92.8633
3552.2361,93.032
3553.2002,93.2053
3554.1646,93.3648
3555.1287,93.502
3556.0930,93.6207
3557.0571,93.7304
3558.0215,93.8385
3558.9856,93.9447
3559.9500,94.0425
3560.9141,94.1255
3561.8784,94.1947
3562.8425,94.261
3563.8069,94.3441
3564.7710,94.47
3565.7354,94.6606
3566.6995,94.9062
3567.6638,95.1522
3568.6279,95.3416
3569.5923,95.4633
3570.5564,95.5456
3571.5208,95.6221
3572.4849,95.7118
3573.4492,95.8159
3574.4133,95.9255
3575.3777,96.0316
3576.3418,96.1319
3577.3062,96.2298
3578.2703,96.3284
3579.2346,96.4245
3580.1987,96.5108
3581.1631,96.5821
3582.1272,96.6419
3583.0916,96.7015
3584.0557,96.7751
3585.0200,96.8753
3585.9841,97.0075
3586.9485,97.1593
3587.9126,97.2954
3588.8770,97.3818
3589.8411,97.4169
3590.8054,97.4266
3591.7695,97.4408
3592.7339,97.4782
3593.6980,97.543
3594.6624,97.6265
3595.6265,97.7131
3596.5908,97.7917
3597.5549,97.8637
3598.5193,97.9393
3599.4834,98.0259
3600.4478,98.1199
3601.4119,98.2086
3602.3762,98.282
3603.3403,98.3424
3604.3047,98.4029
3605.2688,98.4792
3606.2332,98.5819
3607.1973,98.7096
3608.1616,98.8468
3609.1257,98.9706
3610.0901,99.0659
3611.0542,99.1324
3612.0186,99.1783
3612.9829,99.2123
3613.9470,99.24
3614.9114,99.2662
3615.8755,99.298
3616.8398,99.3447
3617.8040,99.412
3618.7683,99.4741
3619.7324,99.5146
3620.6968,99.5108
3621.6609,99.4576
3622.6252,99.3807
3623.5894,99.3161
3624.5537,99.2904
3625.5178,99.3135
3626.4822,99.384
3627.4463,99.4973
3628.4106,99.6352
3629.3748,99.7461
3630.3391,99.7832
3631.3032,99.7555
3632.2676,99.7086
3633.2317,99.681
3634.1960,99.6875
3635.1602,99.7187
3636.1245,99.7557
3637.0886,99.7847
3638.0530,99.8002
3639.0171,99.803
3639.9814,99.7942
3640.9456,99.7736
3641.9099,99.7425
3642.8740,99.7062
3643.8384,99.6719
3644.8025,99.6429
3645.7668,99.6149
3646.7310,99.5895
3647.6953,99.6023
3648.6594,99.7014
3649.6238,99.8421
3650.5879,99.9153
3651.5522,99.8932
3652.5164,99.8245
3653.4807,99.7595
3654.4448,99.7195
3655.4092,99.7003
3656.3733,99.6857
3657.3376,99.6617
3658.3018,99.6281
3659.2661,99.5987
3660.2302,99.5885
3661.1946,99.6
3662.1587,99.6204
3663.1230,99.6318
3664.0872,99.6248
3665.0515,99.6025
3666.0156,99.5741
3666.9800,99.5468
3667.9441,99.5266
3668.9084,99.5205
3669.8726,99.5262
3670.8369,99.5263
3671.8010,99.507
3672.7654,99.4719
3673.7295,99.4377
3674.6938,99.4314
3675.6580,99.4714
3676.6223,99.5346
3677.5864,99.5759
3678.5508,99.579
3679.5149,99.5571
3680.4792,99.5247
3681.4434,99.4879
3682.4077,99.4493
3683.3718,99.4157
3684.3362,99.3951
3685.3003,99.3884
3686.2646,99.3827
3687.2288,99.3599
3688.1931,99.3208
3689.1572,99.2932
3690.1216,99.2963
3691.0857,99.3178
3692.0500,99.3399
3693.0142,99.3578
3693.9785,99.372
3694.9426,99.3823
3695.9070,99.3892
3696.8711,99.3965
3697.8354,99.4111
3698.7996,99.4399
3699.7639,99.4856
3700.7280,99.5427
3701.6924,99.5962
3702.6565,99.6269
3703.6208,99.6244
3704.5850,99.5947
3705.5493,99.5541
3706.5134,99.5174
3707.4778,99.4941
3708.4419,99.4949
3709.4063,99.5435
3710.3704,99.6647
3711.3347,99.8369
3712.2988,99.9838
3713.2632,100.047
3714.2273,100.026
3715.1917,99.9568
3716.1558,99.869
3717.1201,99.7791
3718.0842,99.6915
3719.0486,99.6065
3720.0127,99.5269
3720.9771,99.4596
3721.9412,99.412
3722.9055,99.3887
3723.8696,99.3876
3724.8340,99.4024
3725.7981,99.4398
3726.7625,99.4654
3727.7266,99.4801
3728.6909,99.4911
3729.6550,99.5033
3730.6194,99.5126
3731.5835,99.5097
3732.5479,99.4965
3733.5120,99.5037
3734.4763,99.5761
3735.4404,99.7109
3736.4048,99.8404
3737.3689,99.9105
3738.3333,99.9302
3739.2974,99.9454
3740.2617,99.995
3741.2258,100.087
3742.1902,100.195
3743.1543,100.266
3744.1187,100.254
3745.0828,100.153
3746.0471,100.003
3747.0112,99.8584
3747.9756,99.7672
3748.9397,99.7575
3749.9041,99.8392
3750.8682,99.9752
3751.8325,100.075
3752.7966,100.076
3753.7610,99.9965
3754.7251,99.8936
3755.6895,99.8115
3756.6536,99.7706
3757.6179,99.7732
3758.5820,99.8066
3759.5464,99.8464
3760.5105,99.8709
3761.4749,99.8748
3762.4390,99.8679
3763.4033,99.8626
3764.3674,99.8659
3765.3318,99.8781
3766.2959,99.8953
3767.2603,99.9144
3768.2244,99.9354
3769.1887,99.9597
3770.1528,99.9843
3771.1172,100
3772.0813,100
3773.0457,99.9839
3774.0098,99.9605
3774.9741,99.9388
3775.9382,99.9225
3776.9026,99.911
3777.8667,99.9031
3778.8311,99.8973
3779.7952,99.8898
3780.7595,99.8768
3781.7236,99.8587
3782.6880,99.8411
3783.6521,99.8308
3784.6165,99.8333
3785.5806,99.8508
3786.5449,99.8809
3787.5090,99.9177
3788.4734,99.9541
3789.4375,99.984
3790.4019,100.003
3791.3660,100.01
3792.3303,99.9995
3793.2944,99.9719
3794.2588,99.9301
3795.2229,99.8851
3796.1873,99.8527
3797.1514,99.8449
3798.1157,99.8627
3799.0798,99.8952
3800.0442,99.9248
3801.0083,99.9367
3801.9727,99.9257
3802.9368,99.902
3803.9011,99.8883
3804.8652,99.9065
3805.8296,99.9614
3806.7937,100.032
3807.7581,100.08
3808.7222,100.078
3809.6865,100.033
3810.6506,99.9806
3811.6150,99.9482
3812.5791,99.9435
3813.5435,99.9523
3814.5076,99.9531
3815.4719,99.9336
3816.4360,99.898
3817.4004,99.8633
3818.3645,99.8502
3819.3289,99.8717
3820.2930,99.9212
3821.2573,99.9662
3822.2214,99.9707
3823.1858,99.9284
3824.1499,99.8672
3825.1143,99.824
3826.0784,99.8219
3827.0427,99.8619
3828.0068,99.926
3828.9712,99.9881
3829.9353,100.028
3830.8997,100.037
3831.8638,100.023
3832.8281,99.9983
3833.7922,99.9722
3834.7566,99.9472
3835.7207,99.9196
3836.6851,99.8883
3837.6492,99.8626
3838.6135,99.8572
3839.5776,99.8799
3840.5420,99.9284
3841.5061,99.9943
3842.4705,100.064
3843.4346,100.115
3844.3989,100.127
3845.3630,100.09
3846.3274,100.017
3847.2915,99.9389
3848.2559,99.8893
3849.2200,99.8932
3850.1843,99.9579
3851.1484,100.076
3852.1128,100.234
3853.0769,100.393
3854.0413,100.464
3855.0054,100.397
3855.9697,100.244
3856.9338,100.092
3857.8982,99.9916
3858.8623,99.9545
3859.8267,99.9611
3860.7908,99.9814
3861.7551,99.9929
3862.7192,99.9937
3863.6836,99.9968
3864.6477,100.012
3865.6121,100.039
3866.5762,100.068
3867.5405,100.091
3868.5046,100.102
3869.4690,100.106
3870.4331,100.115
3871.3975,100.132
3872.3616,100.15
3873.3259,100.155
3874.2900,100.142
3875.2544,100.118
3876.2185,100.091
3877.1829,100.07
3878.1470,100.057
3879.1113,100.051
3880.0754,100.056
3881.0398,100.073
3882.0039,100.105
3882.9683,100.152
3883.9324,100.204
3884.8967,100.243
3885.8608,100.252
3886.8252,100.227
3887.7893,100.178
3888.7537,100.126
3889.7178,100.09
3890.6821,100.081
3891.6462,100.095
3892.6106,100.116
3893.5747,100.126
3894.5391,100.121
3895.5032,100.109
3896.4675,100.096
3897.4316,100.083
3898.3960,100.068
3899.3601,100.056
3900.3245,100.056
3901.2886,100.07
3902.2529,100.098
3903.2170,100.132
3904.1814,100.16
3905.1455,100.175
3906.1099,100.177
3907.0740,100.173
3908.0383,100.175
3909.0024,100.185
3909.9668,100.2
3910.9309,100.214
3911.8953,100.221
3912.8594,100.22
3913.8237,100.215
3914.7878,100.212
3915.7522,100.216
3916.7163,100.229
3917.6807,100.242
3918.6448,100.245
3919.6091,100.229
3920.5732,100.2
3921.5376,100.168
3922.5017,100.144
3923.4661,100.134
3924.4302,100.134
3925.3945,100.136
3926.3586,100.128
3927.3230,100.112
3928.2871,100.091
3929.2515,100.076
3930.2156,100.077
3931.1799,100.101
3932.1440,100.145
3933.1084,100.197
3934.0725,100.242
3935.0369,100.272
3936.0010,100.282
3936.9653,100.275
3937.9294,100.254
3938.8938,100.222
3939.8579,100.19
3940.8223,100.167
3941.7864,100.161
3942.7507,100.172
3943.7148,100.193
3944.6792,100.212
3945.6433,100.22
3946.6077,100.217
3947.5718,100.207
3948.5361,100.198
3949.5002,100.197
3950.4646,100.205
3951.4287,100.217
3952.3931,100.231
3953.3572,100.242
3954.3215,100.25
3955.2856,100.253
3956.2500,100.254
3957.2141,100.252
3958.1785,100.25
3959.1426,100.252
3960.1069,100.26
3961.0710,100.275
3962.0354,100.294
3962.9995,100.31
3963.9639,100.318
3964.9280,100.315
3965.8923,100.303
3966.8564,100.286
3967.8208,100.271
3968.7849,100.26
3969.7493,100.255
3970.7134,100.254
3971.6777,100.256
3972.6418,100.261
3973.6062,100.27
3974.5703,100.281
3975.5347,100.292
3976.4988,100.3
3977.4631,100.301
3978.4272,100.297
3979.3916,100.29
3980.3557,100.282
3981.3201,100.275
3982.2842,100.271
3983.2485,100.271
3984.2126,100.274
3985.1770,100.283
3986.1411,100.298
3987.1055,100.317
3988.0696,100.336
3989.0339,100.346
3989.9980,100.342
3990.9624,100.322
3991.9265,100.292
3992.8909,100.264
3993.8550,100.247
3994.8193,100.247
3995.7834,100.26
3996.7478,100.277
3997.7119,100.289
3998.6763,100.293
3999.6404,100.293
4000.6047,100.229

##### Extended Information
[Comments]
Sample name
Comment
User
Division
Company,HANKYONG

[Detailed Information]
Creation date,4/24/2024 10:25 AM

Data array type,Linear data array
Horizontal axis,Wavenumber [cm-1]
Vertical axis,%T
Start,649.893 cm-1
End,4000.6 cm-1
Data interval,0.964233 cm-1
Data points,3476    

[Measurement Information]
Model Name,FT/IR-4700typeA
Serial Number,D056761788

Accessory,ATR PRO ONE
Accessory S/N,C174761809
Incident angle,45 deg

Measurement Date,4/24/2024 10:22 AM

Light Source,Standard
Detector,TGS
Accumulation,32
Resolution,4 cm-1
Zero Filling,On
Apodization,Cosine
Gain,Auto (4)
Aperture,Auto (7.1 mm)
Scanning Speed,Auto (2 mm/sec)
Filter,Auto (30000 Hz)

