TITLE,
DATA TYPE,INFRARED SPECTRUM
ORIGIN,JASCO
OWNER,
DATE,24/04/24
TIME,11:05:06
SPECTROMETER/DATA SYSTEM,
LOCALE,1033
RESOLUTION,
DELTAX,0.964233
XUNITS,1/CM
YUNITS,TRANSMITTANCE
FIRSTX,  649.8934
LASTX, 4000.6047
NPOINTS,    3476
FIRSTY,    98.53346
MAXY,   105.23814
MINY,    45.77606
XYDATA
649.8934,98.5335
650.8576,98.3962
651.8218,98.2237
652.7861,98.0364
653.7503,97.8522
654.7145,97.7013
655.6788,97.5957
656.6430,97.5163
657.6072,97.425
658.5715,97.295
659.5357,97.1322
660.4999,96.9674
661.4642,96.8244
662.4284,96.6908
663.3926,96.5174
664.3569,96.2384
665.3211,95.7908
666.2853,95.1456
667.2496,94.3923
668.2138,93.8207
669.1780,93.712
670.1423,93.9764
671.1065,94.3197
672.0707,94.5699
673.0350,94.697
673.9992,94.7303
674.9634,94.714
675.9277,94.6909
676.8919,94.6959
677.8561,94.7523
678.8204,94.8739
679.7846,95.0685
680.7488,95.3342
681.7131,95.6548
682.6773,96.0016
683.6415,96.3448
684.6058,96.6648
685.5700,96.9524
686.5342,97.1981
687.4985,97.3831
688.4627,97.4787
689.4269,97.4553
690.3912,97.2999
691.3554,97.0464
692.3196,96.8095
693.2839,96.7588
694.2481,96.9882
695.2123,97.4178
696.1766,97.8805
697.1408,98.2467
698.1050,98.4595
699.0693,98.5213
700.0335,98.4753
700.9977,98.3827
701.9620,98.2974
702.9262,98.2492
703.8904,98.2418
704.8547,98.2619
705.8189,98.2907
706.7831,98.311
707.7474,98.3129
708.7116,98.2939
709.6758,98.2572
710.6401,98.2066
711.6043,98.1421
712.5685,98.0567
713.5328,97.9394
714.4970,97.8728
715.4612,98.1831
716.4255,98.0902
717.3897,97.9968
718.3539,97.9437
719.3182,97.9647
720.2824,98.0695
721.2466,98.2363
722.2109,98.4233
723.1751,98.5908
724.1393,98.7195
725.1036,98.814
726.0678,98.8947
727.0320,98.9861
727.9963,99.1064
728.9605,99.2628
729.9247,99.4517
730.8890,99.6613
731.8532,99.8762
732.8174,100.08
733.7817,100.259
734.7459,100.404
735.7101,100.512
736.6744,100.588
737.6386,100.64
738.6028,100.682
739.5671,100.724
740.5313,100.776
741.4955,100.839
742.4598,100.906
743.4240,100.966
744.3882,101.011
745.3525,101.04
746.3167,101.058
747.2809,101.072
748.2452,101.084
749.2094,101.093
750.1736,101.093
751.1379,101.084
752.1021,101.07
753.0663,101.057
754.0306,101.049
754.9948,101.044
755.9590,101.039
756.9233,101.033
757.8875,101.035
758.8517,101.059
759.8160,101.117
760.7802,101.212
761.7444,101.336
762.7087,101.468
763.6729,101.59
764.6371,101.691
765.6014,101.773
766.5656,101.842
767.5298,101.91
768.4941,101.98
769.4583,102.052
770.4225,102.119
771.3868,102.175
772.3510,102.214
773.3152,102.234
774.2795,102.238
775.2437,102.227
776.2079,102.206
777.1722,102.179
778.1364,102.15
779.1006,102.125
780.0649,102.107
781.0291,102.097
781.9933,102.091
782.9576,102.083
783.9218,102.07
784.8860,102.05
785.8503,102.027
786.8145,102.002
787.7787,101.978
788.7430,101.952
789.7072,101.923
790.6714,101.891
791.6357,101.86
792.5999,101.832
793.5641,101.805
794.5284,101.772
795.4926,101.72
796.4568,101.644
797.4211,101.546
798.3853,101.438
799.3495,101.337
800.3138,101.253
801.2780,101.181
802.2422,101.109
803.2065,101.015
804.1707,100.885
805.1349,100.713
806.0992,100.501
807.0634,100.26
808.0276,100.003
808.9919,99.7406
809.9561,99.4831
810.9203,99.2375
811.8846,99.0086
812.8488,98.7991
813.8130,98.6104
814.7773,98.443
815.7415,98.2974
816.7057,98.1748
817.6700,98.0757
818.6342,97.9999
819.5984,97.9458
820.5627,97.9106
821.5269,97.8909
822.4911,97.8826
823.4554,97.8814
824.4196,97.883
825.3839,97.884
826.3481,97.8821
827.3123,97.8758
828.2766,97.8616
829.2408,97.8315
830.2050,97.7709
831.1693,97.6606
832.1335,97.4821
833.0977,97.2243
834.0620,96.8886
835.0262,96.4902
835.9904,96.0517
836.9547,95.5957
837.9189,95.1364
838.8831,94.6768
839.8474,94.2122
840.8116,93.7369
841.7758,93.2523
842.7401,92.7712
843.7043,92.3149
844.6685,91.9072
845.6328,91.5655
846.5970,91.2953
847.5612,91.0901
848.5255,90.936
849.4897,90.8192
850.4539,90.7323
851.4182,90.6749
852.3824,90.651
853.3466,90.6631
854.3109,90.7075
855.2751,90.7744
856.2393,90.8512
857.2036,90.928
858.1678,91.001
859.1320,91.0735
860.0963,91.1531
861.0605,91.2485
862.0247,91.3672
862.9890,91.5144
863.9532,91.6937
864.9174,91.9079
865.8817,92.1588
866.8459,92.4484
867.8101,92.7787
868.7744,93.1522
869.7386,93.5702
870.7028,94.0302
871.6671,94.5217
872.6313,95.0239
873.5955,95.5083
874.5598,95.9451
875.5240,96.3129
876.4882,96.6056
877.4525,96.833
878.4167,97.0146
879.3809,97.1702
880.3452,97.3118
881.3094,97.4416
882.2736,97.5552
883.2379,97.6469
884.2021,97.7129
885.1663,97.7504
886.1306,97.7559
887.0948,97.7235
888.0590,97.6485
889.0233,97.5312
889.9875,97.3786
890.9517,97.2027
891.9160,97.0138
892.8802,96.8154
893.8444,96.6029
894.8087,96.3673
895.7729,96.1004
896.7371,95.7997
897.7014,95.4675
898.6656,95.1095
899.6298,94.7312
900.5941,94.3374
901.5583,93.9331
902.5225,93.5248
903.4868,93.1201
904.4510,92.7262
905.4152,92.3475
906.3795,91.9846
907.3437,91.6356
908.3079,91.2984
909.2722,90.9739
910.2364,90.6672
911.2006,90.3864
912.1649,90.1406
913.1291,89.9367
914.0933,89.7783
915.0576,89.6658
916.0218,89.5985
916.9860,89.5761
917.9503,89.5992
918.9145,89.6688
919.8787,89.7849
920.8430,89.947
921.8072,90.1546
922.7714,90.4085
923.7357,90.7099
924.6999,91.0593
925.6641,91.4562
926.6284,91.8995
927.5926,92.39
928.5568,92.9309
929.5211,93.5264
930.4853,94.1769
931.4495,94.8739
932.4138,95.5991
933.3780,96.3274
934.3422,97.0333
935.3065,97.6963
936.2707,98.3028
937.2349,98.8437
938.1992,99.3109
939.1634,99.6962
940.1276,99.9935
941.0919,100.202
942.0561,100.33
943.0203,100.387
943.9846,100.387
944.9488,100.337
945.9130,100.243
946.8773,100.106
947.8415,99.9264
948.8057,99.7085
949.7700,99.4561
950.7342,99.188
951.6984,98.9369
952.6627,98.6507
953.6269,98.3277
954.5911,97.9677
955.5554,97.5709
956.5196,97.1366
957.4838,96.6609
958.4481,96.1381
959.4123,95.563
960.3765,94.9343
961.3408,94.2571
962.3050,93.5416
963.2692,92.8011
964.2335,92.0484
965.1977,91.2945
966.1619,90.5478
967.1262,89.8154
968.0904,89.1046
969.0546,88.4242
970.0189,87.7833
970.9831,87.1903
971.9473,86.6508
972.9116,86.1651
973.8758,85.7282
974.8400,85.3297
975.8043,84.9559
976.7685,84.5914
977.7327,84.2204
978.6970,83.8289
979.6612,83.4053
980.6254,82.9422
981.5897,82.4362
982.5539,81.8879
983.5181,81.3012
984.4824,80.6826
985.4466,80.0424
986.4108,79.3958
987.3751,78.7636
988.3393,78.1708
989.3035,77.6428
990.2678,77.2002
991.2320,76.8541
992.1962,76.6045
993.1605,76.4409
994.1247,76.3472
995.0889,76.3054
996.0532,76.2988
997.0174,76.3126
997.9816,76.3316
998.9459,76.3392
999.9101,76.3163
1000.8743,76.2436
1001.8386,76.103
1002.8028,75.8797
1003.7670,75.562
1004.7313,75.1393
1005.6955,74.6021
1006.6597,73.9418
1007.6240,73.1527
1008.5882,72.2345
1009.5524,71.1933
1010.5167,70.0416
1011.4809,68.7973
1012.4451,67.4808
1013.4094,66.1124
1014.3736,64.7095
1015.3378,63.2854
1016.3021,61.8518
1017.2663,60.4221
1018.2305,59.0139
1019.1948,57.6457
1020.1590,56.3294
1021.1232,55.0623
1022.0875,53.8288
1023.0517,52.6123
1024.0160,51.4126
1024.9802,50.2575
1025.9445,49.1978
1026.9087,48.2873
1027.8729,47.5574
1028.8372,47.0043
1029.8014,46.5943
1030.7656,46.2847
1031.7299,46.0456
1032.6941,45.8713
1033.6583,45.7761
1034.6226,45.7806
1035.5868,45.8994
1036.5510,46.1337
1037.5153,46.4723
1038.4795,46.8948
1039.4437,47.3767
1040.4080,47.8939
1041.3722,48.4276
1042.3364,48.9688
1043.3007,49.5195
1044.2649,50.0893
1045.2291,50.6898
1046.1934,51.3302
1047.1576,52.0168
1048.1218,52.7548
1049.0861,53.5495
1050.0503,54.4037
1051.0145,55.312
1051.9788,56.2585
1052.9430,57.2211
1053.9072,58.1841
1054.8715,59.1497
1055.8357,60.1412
1056.7999,61.1892
1057.7642,62.3078
1058.7284,63.4715
1059.6926,64.6115
1060.6569,65.6363
1061.6211,66.4726
1062.5853,67.1047
1063.5496,67.5895
1064.5138,68.0355
1065.4780,68.553
1066.4423,69.2016
1067.4065,69.9619
1068.3707,70.7477
1069.3350,71.4489
1070.2992,71.9823
1071.2634,72.322
1072.2277,72.4972
1073.1919,72.5671
1074.1561,72.5892
1075.1204,72.5997
1076.0846,72.6113
1077.0488,72.6225
1078.0131,72.6278
1078.9773,72.6228
1079.9415,72.6045
1080.9058,72.569
1081.8700,72.5114
1082.8342,72.4265
1083.7985,72.3106
1084.7627,72.1632
1085.7269,71.9896
1086.6912,71.8017
1087.6554,71.6165
1088.6196,71.4498
1089.5839,71.3076
1090.5481,71.1807
1091.5123,71.0469
1092.4766,70.8798
1093.4408,70.6616
1094.4050,70.3894
1095.3693,70.0731
1096.3335,69.7264
1097.2977,69.3581
1098.2620,68.969
1099.2262,68.5561
1100.1904,68.1192
1101.1547,67.6647
1102.1189,67.206
1103.0831,66.7593
1104.0474,66.3409
1105.0116,65.966
1105.9758,65.6494
1106.9401,65.4071
1107.9043,65.256
1108.8685,65.2145
1109.8328,65.3008
1110.7970,65.5325
1111.7612,65.9253
1112.7255,66.4896
1113.6897,67.2292
1114.6539,68.1396
1115.6182,69.2103
1116.5824,70.4275
1117.5466,71.7774
1118.5109,73.2462
1119.4751,74.8192
1120.4393,76.4782
1121.4036,78.2006
1122.3678,79.9601
1123.3320,81.7301
1124.2963,83.4863
1125.2605,85.2088
1126.2247,86.8819
1127.1890,88.4927
1128.1532,90.0292
1129.1174,91.478
1130.0817,92.825
1131.0459,94.0569
1132.0101,95.1647
1132.9744,96.1451
1133.9386,97.0006
1134.9028,97.736
1135.8671,98.3551
1136.8313,98.8591
1137.7955,99.2483
1138.7598,99.5255
1139.7240,99.6993
1140.6882,99.7829
1141.6525,99.7908
1142.6167,99.735
1143.5809,99.6233
1144.5452,99.4441
1145.5094,99.1501
1146.4736,98.8341
1147.4379,98.5173
1148.4021,98.2202
1149.3663,97.9588
1150.3306,97.7414
1151.2948,97.5702
1152.2590,97.444
1153.2233,97.3596
1154.1875,97.3119
1155.1517,97.2918
1156.1160,97.2857
1157.0802,97.276
1158.0444,97.2448
1159.0087,97.1765
1159.9729,97.0607
1160.9371,96.8918
1161.9014,96.6687
1162.8656,96.393
1163.8298,96.0682
1164.7941,95.6993
1165.7583,95.2916
1166.7225,94.8504
1167.6868,94.3805
1168.6510,93.8853
1169.6152,93.3674
1170.5795,92.8288
1171.5437,92.2705
1172.5079,91.6926
1173.4722,91.0941
1174.4364,90.4738
1175.4006,89.8311
1176.3649,89.1673
1177.3291,88.4857
1178.2933,87.792
1179.2576,87.0925
1180.2218,86.3938
1181.1860,85.7023
1182.1503,85.0244
1183.1145,84.3668
1184.0787,83.7365
1185.0430,83.1395
1186.0072,82.5795
1186.9714,82.0562
1187.9357,81.5658
1188.8999,81.102
1189.8641,80.6583
1190.8284,80.2295
1191.7926,79.8128
1192.7568,79.4071
1193.7211,79.0123
1194.6853,78.6285
1195.6495,78.2558
1196.6138,77.8936
1197.5780,77.5404
1198.5422,77.1936
1199.5065,76.8903
1200.4707,76.5431
1201.4349,76.1961
1202.3992,75.8517
1203.3634,75.515
1204.3276,75.1929
1205.2919,74.8923
1206.2561,74.6191
1207.2203,74.3773
1208.1846,74.1692
1209.1488,73.9963
1210.1130,73.8595
1211.0773,73.7593
1212.0415,73.6956
1213.0057,73.6679
1213.9700,73.676
1214.9342,73.7206
1215.8984,73.8027
1216.8627,73.9224
1217.8269,74.0778
1218.7911,74.2636
1219.7554,74.4728
1220.7196,74.6987
1221.6838,74.9356
1222.6481,75.1791
1223.6123,75.4244
1224.5765,75.6654
1225.5408,75.8956
1226.5050,76.1099
1227.4692,76.3067
1228.4335,76.4868
1229.3977,76.6526
1230.3619,76.8066
1231.3262,76.9524
1232.2904,77.0954
1233.2546,77.2418
1234.2189,77.3939
1235.1831,77.5453
1236.1473,77.6799
1237.1116,77.78
1238.0758,77.839
1239.0400,77.8722
1240.0043,77.915
1240.9685,78.007
1241.9327,78.171
1242.8970,78.3983
1243.8612,78.6514
1244.8254,78.8834
1245.7897,79.0611
1246.7539,79.1799
1247.7181,79.2598
1248.6824,79.33
1249.6466,79.4111
1250.6108,79.5068
1251.5751,79.6058
1252.5393,79.6904
1253.5035,79.7457
1254.4678,79.7644
1255.4320,79.7464
1256.3962,79.6973
1257.3605,79.6253
1258.3247,79.5391
1259.2889,79.4462
1260.2532,79.3511
1261.2174,79.2541
1262.1816,79.1529
1263.1459,79.0451
1264.1101,78.9303
1265.0743,78.8114
1266.0386,78.6944
1267.0028,78.5874
1267.9670,78.5001
1268.9313,78.4425
1269.8955,78.4244
1270.8597,78.4533
1271.8240,78.5323
1272.7882,78.6599
1273.7524,78.8301
1274.7167,79.0358
1275.6809,79.2703
1276.6451,79.5292
1277.6094,79.8092
1278.5736,80.1071
1279.5378,80.4183
1280.5021,80.7367
1281.4663,81.0558
1282.4305,81.3701
1283.3948,81.6769
1284.3590,81.9753
1285.3232,82.2657
1286.2875,82.5477
1287.2517,82.8195
1288.2159,83.0783
1289.1802,83.3214
1290.1444,83.5474
1291.1086,83.7565
1292.0729,83.9501
1293.0371,84.1306
1294.0013,84.3004
1294.9656,84.462
1295.9298,84.617
1296.8940,84.7651
1297.8583,84.9035
1298.8225,85.0271
1299.7867,85.1305
1300.7510,85.2098
1301.7152,85.2641
1302.6794,85.2961
1303.6437,85.3104
1304.6079,85.3107
1305.5721,85.2985
1306.5364,85.2724
1307.5006,85.2289
1308.4648,85.1646
1309.4291,85.0782
1310.3933,84.9718
1311.3575,84.8508
1312.3218,84.7222
1313.2860,84.592
1314.2502,84.4634
1315.2145,84.3364
1316.1787,84.2106
1317.1429,84.0872
1318.1072,83.9702
1319.0714,83.8641
1320.0356,83.7706
1320.9999,83.6867
1321.9641,83.608
1322.9283,83.5314
1323.8926,83.4588
1324.8568,83.3966
1325.8210,83.3539
1326.7853,83.3394
1327.7495,83.3592
1328.7137,83.4171
1329.6780,83.5146
1330.6422,83.6502
1331.6064,83.818
1332.5707,84.0063
1333.5349,84.1996
1334.4991,84.3848
1335.4634,84.558
1336.4276,84.7293
1337.3918,84.9225
1338.3561,85.1638
1339.3203,85.4604
1340.2845,85.7851
1341.2488,86.0922
1342.2130,86.3483
1343.1772,86.5453
1344.1415,86.6922
1345.1057,86.8027
1346.0699,86.888
1347.0342,86.9552
1347.9984,87.0077
1348.9626,87.0451
1349.9269,87.0648
1350.8911,87.0637
1351.8553,87.0412
1352.8196,87.0007
1353.7838,86.9492
1354.7480,86.8928
1355.7123,86.8335
1356.6765,86.7674
1357.6407,86.6886
1358.6050,86.5931
1359.5692,86.4827
1360.5334,86.3682
1361.4977,86.2693
1362.4619,86.2014
1363.4261,86.1584
1364.3904,86.1163
1365.3546,86.0561
1366.3188,85.974
1367.2831,85.8764
1368.2473,85.7709
1369.2115,85.6611
1370.1758,85.5465
1371.1400,85.4257
1372.1042,85.3022
1373.0685,85.1888
1374.0327,85.1044
1374.9969,85.0598
1375.9612,85.0476
1376.9254,85.0519
1377.8896,85.0644
1378.8539,85.0876
1379.8181,85.1265
1380.7823,85.1795
1381.7466,85.239
1382.7108,85.2993
1383.6750,85.3648
1384.6393,85.4497
1385.6035,85.5671
1386.5677,85.708
1387.5320,85.8222
1388.4962,85.8376
1389.4604,85.7122
1390.4247,85.4601
1391.3889,85.1343
1392.3531,84.8045
1393.3174,84.5483
1394.2816,84.4348
1395.2458,84.4845
1396.2101,84.637
1397.1743,84.7789
1398.1385,84.8162
1399.1028,84.7204
1400.0670,84.5186
1401.0313,84.2565
1401.9955,83.9718
1402.9597,83.6863
1403.9240,83.4125
1404.8882,83.1605
1405.8524,82.9384
1406.8167,82.7466
1407.7809,82.5791
1408.7451,82.4292
1409.7094,82.2912
1410.6736,82.159
1411.6378,82.0244
1412.6021,81.8808
1413.5663,81.7271
1414.5305,81.5663
1415.4948,81.3985
1416.4590,81.2169
1417.4232,81.0176
1418.3875,80.8085
1419.3517,80.595
1420.3159,80.3667
1421.2802,80.1205
1422.2444,79.8775
1423.2086,79.6673
1424.1729,79.5096
1425.1371,79.409
1426.1013,79.3629
1427.0656,79.3739
1428.0298,79.455
1428.9940,79.6186
1429.9583,79.8577
1430.9225,80.1394
1431.8867,80.4291
1432.8510,80.7166
1433.8152,81.0158
1434.7794,81.3414
1435.7437,81.6805
1436.7079,81.969
1437.6721,82.1133
1438.6364,82.0664
1439.6006,81.8608
1440.5648,81.5596
1441.5291,81.2073
1442.4933,80.8195
1443.4575,80.3946
1444.4218,79.9271
1445.3860,79.4153
1446.3502,78.866
1447.3145,78.2986
1448.2787,77.7438
1449.2429,77.2321
1450.2072,76.7831
1451.1714,76.4073
1452.1356,76.1105
1453.0999,75.8894
1454.0641,75.7237
1455.0283,75.586
1455.9926,75.4974
1456.9568,75.5512
1457.9210,75.7306
1458.8853,75.852
1459.8495,75.8426
1460.8137,75.7861
1461.7780,75.7968
1462.7422,75.9736
1463.7064,76.3979
1464.6707,77.0896
1465.6349,77.9424
1466.5991,78.7846
1467.5634,79.5309
1468.5276,80.2182
1469.4918,80.9372
1470.4561,81.7786
1471.4203,82.8165
1472.3845,84.0626
1473.3488,85.3762
1474.3130,86.5085
1475.2772,87.326
1476.2415,87.8718
1477.2057,88.2438
1478.1699,88.5128
1479.1342,88.7171
1480.0984,88.8779
1481.0626,89.0075
1482.0269,89.1089
1482.9911,89.176
1483.9553,89.1998
1484.9196,89.173
1485.8838,89.0881
1486.8480,88.9415
1487.8123,88.7564
1488.7765,88.5971
1489.7407,88.5073
1490.7050,88.4433
1491.6692,88.3392
1492.6334,88.1809
1493.5977,87.9837
1494.5619,87.7528
1495.5261,87.4811
1496.4904,87.179
1497.4546,86.8865
1498.4188,86.6277
1499.3831,86.3827
1500.3473,86.1396
1501.3115,85.9252
1502.2758,85.7712
1503.2400,85.6652
1504.2042,85.5067
1505.1685,85.0859
1506.1327,84.2088
1507.0969,83.057
1508.0612,82.1065
1509.0254,81.4383
1509.9896,80.8683
1510.9539,80.3138
1511.9181,79.7866
1512.8823,79.3387
1513.8466,79.0522
1514.8108,79.0237
1515.7750,79.3164
1516.7393,79.9185
1517.7035,80.7794
1518.6677,81.9029
1519.6320,83.3728
1520.5962,85.226
1521.5604,87.2838
1522.5247,89.2104
1523.4889,90.7986
1524.4531,92.1033
1525.4174,93.295
1526.3816,94.459
1527.3458,95.5402
1528.3101,96.4402
1529.2743,97.1269
1530.2385,97.6539
1531.2028,98.117
1532.1670,98.597
1533.1312,99.1042
1534.0955,99.5673
1535.0597,99.9166
1536.0239,100.157
1536.9882,100.328
1537.9524,100.416
1538.9166,100.345
1539.8809,100.121
1540.8451,99.9896
1541.8093,100.127
1542.7736,100.366
1543.7378,100.547
1544.7020,100.649
1545.6663,100.684
1546.6305,100.661
1547.5947,100.595
1548.5590,100.507
1549.5232,100.413
1550.4874,100.312
1551.4517,100.193
1552.4159,100.055
1553.3801,99.9189
1554.3444,99.8186
1555.3086,99.7668
1556.2728,99.7636
1557.2371,99.7243
1558.2013,99.7073
1559.1655,99.7636
1560.1298,99.676
1561.0940,99.3292
1562.0582,98.8595
1563.0225,98.4182
1563.9867,98.0731
1564.9509,97.8233
1565.9152,97.6265
1566.8794,97.4221
1567.8436,97.1594
1568.8079,96.8286
1569.7721,96.4638
1570.7363,96.1095
1571.7006,95.7916
1572.6648,95.5044
1573.6290,95.2003
1574.5933,94.801
1575.5575,94.2658
1576.5217,93.6635
1577.4860,93.1033
1578.4502,92.6107
1579.4144,92.1519
1580.3787,91.6964
1581.3429,91.2257
1582.3071,90.7321
1583.2714,90.2224
1584.2356,89.7155
1585.1998,89.227
1586.1641,88.7618
1587.1283,88.3189
1588.0925,87.8996
1589.0568,87.5087
1590.0210,87.1485
1590.9852,86.8156
1591.9495,86.5035
1592.9137,86.2096
1593.8779,85.937
1594.8422,85.69
1595.8064,85.4673
1596.7706,85.2608
1597.7349,85.061
1598.6991,84.8642
1599.6633,84.6746
1600.6276,84.5031
1601.5918,84.3617
1602.5560,84.2569
1603.5203,84.1851
1604.4845,84.1345
1605.4487,84.0942
1606.4130,84.064
1607.3772,84.0589
1608.3414,84.1013
1609.3057,84.2024
1610.2699,84.35
1611.2341,84.5234
1612.1984,84.7197
1613.1626,84.9636
1614.1268,85.3065
1615.0911,85.8145
1616.0553,86.5086
1617.0195,87.2678
1617.9838,87.8923
1618.9480,88.3085
1619.9122,88.6016
1620.8765,88.8948
1621.8407,89.262
1622.8049,89.7031
1623.7692,90.1537
1624.7334,90.5376
1625.6976,90.8296
1626.6619,91.0592
1627.6261,91.2626
1628.5903,91.4468
1629.5546,91.6009
1630.5188,91.7264
1631.4830,91.8417
1632.4473,91.9549
1633.4115,92.0393
1634.3757,92.0579
1635.3400,92.0355
1636.3042,92.0432
1637.2684,92.0663
1638.2327,92.0395
1639.1969,91.9604
1640.1611,91.871
1641.1254,91.8078
1642.0896,91.7826
1643.0538,91.7752
1644.0181,91.7286
1644.9823,91.577
1645.9465,91.3248
1646.9108,91.0819
1647.8750,90.9514
1648.8392,90.9537
1649.8035,91.0689
1650.7677,91.2392
1651.7319,91.354
1652.6962,91.3338
1653.6604,91.2173
1654.6246,91.0016
1655.5889,90.6577
1656.5531,90.2752
1657.5173,89.9607
1658.4816,89.7525
1659.4458,89.624
1660.4100,89.5204
1661.3743,89.4024
1662.3385,89.2677
1663.3027,89.1302
1664.2670,88.9979
1665.2312,88.8737
1666.1954,88.7517
1667.1597,88.6097
1668.1239,88.4267
1669.0881,88.2209
1670.0524,88.0494
1671.0166,87.9462
1671.9808,87.8977
1672.9451,87.8764
1673.9093,87.8533
1674.8735,87.789
1675.8378,87.6418
1676.8020,87.3995
1677.7662,87.101
1678.7305,86.8179
1679.6947,86.6092
1680.6589,86.4833
1681.6232,86.3881
1682.5874,86.2469
1683.5516,86.0376
1684.5159,85.792
1685.4801,85.5002
1686.4443,85.1404
1687.4086,84.7403
1688.3728,84.3476
1689.3370,83.9977
1690.3013,83.707
1691.2655,83.4711
1692.2297,83.2613
1693.1940,83.0263
1694.1582,82.7092
1695.1224,82.2842
1696.0867,81.7967
1697.0509,81.3598
1698.0151,81.0695
1698.9794,80.9016
1699.9436,80.7243
1700.9078,80.4322
1701.8721,80.0338
1702.8363,79.6149
1703.8005,79.263
1704.7648,79.0275
1705.7290,78.9132
1706.6932,78.8869
1707.6575,78.8987
1708.6217,78.912
1709.5859,78.9208
1710.5502,78.938
1711.5144,78.976
1712.4786,79.0371
1713.4429,79.1197
1714.4071,79.2429
1715.3713,79.4812
1716.3356,79.9409
1717.2998,80.5957
1718.2640,81.2123
1719.2283,81.6093
1720.1925,81.82
1721.1567,81.9747
1722.1210,82.1762
1723.0852,82.4613
1724.0494,82.8107
1725.0137,83.1766
1725.9779,83.5154
1726.9421,83.81
1727.9064,84.0713
1728.8706,84.3256
1729.8348,84.6028
1730.7991,84.9345
1731.7633,85.3591
1732.7275,85.9028
1733.6918,86.508
1734.6560,87.0137
1735.6202,87.3129
1736.5845,87.4594
1737.5487,87.5807
1738.5129,87.7722
1739.4772,88.0589
1740.4414,88.4042
1741.4056,88.7435
1742.3699,89.0308
1743.3341,89.265
1744.2983,89.4758
1745.2626,89.694
1746.2268,89.9394
1747.1910,90.2307
1748.1553,90.5981
1749.1195,91.061
1750.0837,91.574
1751.0480,92.0291
1752.0122,92.3472
1752.9764,92.538
1753.9407,92.6655
1754.9049,92.7913
1755.8691,92.9448
1756.8334,93.1237
1757.7976,93.3111
1758.7618,93.4972
1759.7261,93.6875
1760.6903,93.8941
1761.6545,94.1158
1762.6188,94.3323
1763.5830,94.5203
1764.5472,94.675
1765.5115,94.8111
1766.4757,94.9444
1767.4399,95.0779
1768.4042,95.2027
1769.3684,95.3135
1770.3326,95.4306
1771.2969,95.602
1772.2611,95.8561
1773.2253,96.1505
1774.1896,96.4073
1775.1538,96.5951
1776.1180,96.7425
1777.0823,96.8937
1778.0465,97.0742
1779.0107,97.2833
1779.9750,97.5044
1780.9392,97.7205
1781.9034,97.9225
1782.8677,98.1083
1783.8319,98.273
1784.7961,98.4059
1785.7604,98.4991
1786.7246,98.5585
1787.6888,98.6032
1788.6531,98.6504
1789.6173,98.7032
1790.5815,98.7549
1791.5458,98.8064
1792.5100,98.8625
1793.4742,98.9097
1794.4385,98.9301
1795.4027,98.9324
1796.3669,98.9438
1797.3312,98.9825
1798.2954,99.0481
1799.2596,99.1298
1800.2239,99.2162
1801.1881,99.2978
1802.1523,99.3651
1803.1166,99.4127
1804.0808,99.4415
1805.0450,99.4566
1806.0093,99.4624
1806.9735,99.4613
1807.9377,99.4567
1808.9020,99.4564
1809.8662,99.4717
1810.8304,99.5087
1811.7947,99.5617
1812.7589,99.617
1813.7231,99.6642
1814.6874,99.7005
1815.6516,99.7416
1816.6158,99.7861
1817.5801,99.8213
1818.5443,99.8481
1819.5085,99.8705
1820.4728,99.894
1821.4370,99.9227
1822.4012,99.9558
1823.3655,99.9872
1824.3297,100.009
1825.2939,100.014
1826.2582,100.002
1827.2224,99.9852
1828.1866,99.9814
1829.1509,100.01
1830.1151,100.072
1831.0793,100.142
1832.0436,100.189
1833.0078,100.204
1833.9720,100.201
1834.9363,100.197
1835.9005,100.202
1836.8647,100.215
1837.8290,100.235
1838.7932,100.264
1839.7574,100.307
1840.7217,100.365
1841.6859,100.424
1842.6501,100.466
1843.6144,100.482
1844.5786,100.479
1845.5428,100.466
1846.5071,100.449
1847.4713,100.441
1848.4355,100.454
1849.3998,100.489
1850.3640,100.536
1851.3282,100.578
1852.2925,100.606
1853.2567,100.618
1854.2209,100.621
1855.1852,100.621
1856.1494,100.622
1857.1136,100.624
1858.0779,100.629
1859.0421,100.639
1860.0063,100.654
1860.9706,100.668
1861.9348,100.673
1862.8990,100.663
1863.8633,100.636
1864.8275,100.597
1865.7917,100.552
1866.7560,100.518
1867.7202,100.523
1868.6844,100.585
1869.6487,100.683
1870.6129,100.771
1871.5771,100.821
1872.5414,100.841
1873.5056,100.849
1874.4698,100.858
1875.4341,100.871
1876.3983,100.886
1877.3625,100.899
1878.3268,100.909
1879.2910,100.916
1880.2552,100.921
1881.2195,100.922
1882.1837,100.92
1883.1479,100.915
1884.1122,100.91
1885.0764,100.907
1886.0406,100.909
1887.0049,100.917
1887.9691,100.93
1888.9333,100.945
1889.8976,100.958
1890.8618,100.962
1891.8260,100.956
1892.7903,100.944
1893.7545,100.938
1894.7188,100.943
1895.6830,100.962
1896.6472,100.991
1897.6115,101.018
1898.5757,101.038
1899.5399,101.048
1900.5042,101.051
1901.4684,101.051
1902.4326,101.051
1903.3969,101.048
1904.3611,101.039
1905.3253,101.022
1906.2896,100.998
1907.2538,100.975
1908.2180,100.964
1909.1823,100.972
1910.1465,100.999
1911.1107,101.033
1912.0750,101.063
1913.0392,101.085
1914.0034,101.102
1914.9677,101.116
1915.9319,101.128
1916.8961,101.133
1917.8604,101.127
1918.8246,101.106
1919.7888,101.072
1920.7531,101.037
1921.7173,101.018
1922.6815,101.024
1923.6458,101.054
1924.6100,101.094
1925.5742,101.129
1926.5385,101.149
1927.5027,101.157
1928.4669,101.157
1929.4312,101.156
1930.3954,101.157
1931.3596,101.161
1932.3239,101.167
1933.2881,101.177
1934.2523,101.189
1935.2166,101.202
1936.1808,101.214
1937.1450,101.219
1938.1093,101.216
1939.0735,101.205
1940.0377,101.187
1941.0020,101.166
1941.9662,101.15
1942.9304,101.149
1943.8947,101.162
1944.8589,101.186
1945.8231,101.218
1946.7874,101.252
1947.7516,101.287
1948.7158,101.317
1949.6801,101.338
1950.6443,101.35
1951.6085,101.355
1952.5728,101.361
1953.5370,101.372
1954.5012,101.389
1955.4655,101.411
1956.4297,101.434
1957.3939,101.453
1958.3582,101.469
1959.3224,101.482
1960.2866,101.493
1961.2509,101.502
1962.2151,101.505
1963.1793,101.502
1964.1436,101.496
1965.1078,101.491
1966.0720,101.497
1967.0363,101.517
1968.0005,101.551
1968.9647,101.59
1969.9290,101.626
1970.8932,101.653
1971.8574,101.671
1972.8217,101.683
1973.7859,101.691
1974.7501,101.697
1975.7144,101.705
1976.6786,101.713
1977.6428,101.723
1978.6071,101.734
1979.5713,101.747
1980.5355,101.761
1981.4998,101.773
1982.4640,101.785
1983.4282,101.793
1984.3925,101.799
1985.3567,101.8
1986.3209,101.799
1987.2852,101.795
1988.2494,101.792
1989.2136,101.791
1990.1779,101.796
1991.1421,101.809
1992.1063,101.83
1993.0706,101.857
1994.0348,101.883
1994.9990,101.905
1995.9633,101.922
1996.9275,101.933
1997.8917,101.941
1998.8560,101.949
1999.8202,101.958
2000.7844,101.969
2001.7487,101.98
2002.7129,101.989
2003.6771,101.994
2004.6414,101.995
2005.6056,101.994
2006.5698,101.992
2007.5341,101.993
2008.4983,101.998
2009.4625,102.006
2010.4268,102.017
2011.3910,102.025
2012.3552,102.027
2013.3195,102.023
2014.2837,102.014
2015.2479,102.004
2016.2122,102
2017.1764,102.005
2018.1406,102.019
2019.1049,102.038
2020.0691,102.057
2021.0333,102.071
2021.9976,102.08
2022.9618,102.085
2023.9260,102.089
2024.8903,102.094
2025.8545,102.101
2026.8187,102.109
2027.7830,102.116
2028.7472,102.12
2029.7114,102.121
2030.6757,102.12
2031.6399,102.117
2032.6041,102.114
2033.5684,102.114
2034.5326,102.118
2035.4968,102.124
2036.4611,102.131
2037.4253,102.135
2038.3895,102.136
2039.3538,102.135
2040.3180,102.134
2041.2822,102.134
2042.2465,102.138
2043.2107,102.143
2044.1749,102.148
2045.1392,102.152
2046.1034,102.155
2047.0676,102.158
2048.0320,102.162
2048.9961,102.167
2049.9604,102.173
2050.9246,102.18
2051.8889,102.185
2052.8530,102.188
2053.8174,102.189
2054.7815,102.188
2055.7458,102.185
2056.7100,102.183
2057.6743,102.184
2058.6384,102.186
2059.6028,102.189
2060.5669,102.191
2061.5313,102.19
2062.4954,102.188
2063.4597,102.188
2064.4238,102.193
2065.3882,102.205
2066.3523,102.225
2067.3167,102.247
2068.2808,102.269
2069.2451,102.287
2070.2092,102.302
2071.1736,102.314
2072.1377,102.323
2073.1021,102.331
2074.0662,102.337
2075.0305,102.342
2075.9946,102.347
2076.9590,102.352
2077.9231,102.358
2078.8875,102.366
2079.8516,102.374
2080.8159,102.382
2081.7800,102.39
2082.7444,102.398
2083.7085,102.406
2084.6729,102.415
2085.6370,102.425
2086.6013,102.437
2087.5654,102.449
2088.5298,102.461
2089.4939,102.472
2090.4583,102.48
2091.4224,102.486
2092.3867,102.49
2093.3508,102.494
2094.3152,102.5
2095.2793,102.51
2096.2437,102.522
2097.2078,102.537
2098.1721,102.551
2099.1362,102.563
2100.1006,102.57
2101.0647,102.576
2102.0291,102.58
2102.9932,102.586
2103.9575,102.593
2104.9216,102.602
2105.8860,102.611
2106.8501,102.618
2107.8145,102.623
2108.7786,102.626
2109.7429,102.629
2110.7070,102.631
2111.6714,102.633
2112.6355,102.636
2113.5999,102.641
2114.5640,102.65
2115.5283,102.662
2116.4924,102.676
2117.4568,102.691
2118.4209,102.703
2119.3853,102.712
2120.3494,102.717
2121.3137,102.721
2122.2778,102.725
2123.2422,102.73
2124.2063,102.738
2125.1707,102.746
2126.1348,102.756
2127.0991,102.767
2128.0632,102.78
2129.0276,102.794
2129.9917,102.809
2130.9561,102.822
2131.9202,102.833
2132.8845,102.841
2133.8486,102.847
2134.8130,102.853
2135.7771,102.862
2136.7415,102.875
2137.7056,102.892
2138.6699,102.911
2139.6340,102.929
2140.5984,102.944
2141.5625,102.956
2142.5269,102.964
2143.4910,102.972
2144.4553,102.982
2145.4194,102.995
2146.3838,103.01
2147.3479,103.027
2148.3123,103.043
2149.2764,103.057
2150.2407,103.068
2151.2048,103.077
2152.1692,103.084
2153.1333,103.092
2154.0977,103.101
2155.0618,103.112
2156.0261,103.126
2156.9902,103.141
2157.9546,103.156
2158.9187,103.171
2159.8831,103.187
2160.8472,103.203
2161.8115,103.22
2162.7756,103.237
2163.7400,103.253
2164.7041,103.267
2165.6685,103.28
2166.6326,103.291
2167.5969,103.3
2168.5610,103.307
2169.5254,103.314
2170.4895,103.321
2171.4539,103.329
2172.4180,103.34
2173.3823,103.354
2174.3464,103.371
2175.3108,103.388
2176.2749,103.403
2177.2393,103.415
2178.2034,103.425
2179.1677,103.432
2180.1318,103.438
2181.0962,103.443
2182.0603,103.448
2183.0247,103.454
2183.9888,103.462
2184.9531,103.473
2185.9172,103.488
2186.8816,103.505
2187.8457,103.523
2188.8101,103.54
2189.7742,103.554
2190.7385,103.565
2191.7026,103.573
2192.6670,103.581
2193.6311,103.589
2194.5955,103.597
2195.5596,103.605
2196.5239,103.614
2197.4880,103.622
2198.4524,103.629
2199.4165,103.636
2200.3809,103.642
2201.3450,103.65
2202.3093,103.659
2203.2734,103.67
2204.2378,103.681
2205.2019,103.691
2206.1663,103.699
2207.1304,103.708
2208.0947,103.716
2209.0588,103.727
2210.0232,103.737
2210.9873,103.747
2211.9517,103.755
2212.9158,103.76
2213.8801,103.765
2214.8442,103.77
2215.8086,103.777
2216.7727,103.785
2217.7371,103.793
2218.7012,103.798
2219.6655,103.8
2220.6296,103.802
2221.5940,103.805
2222.5581,103.811
2223.5225,103.82
2224.4866,103.832
2225.4509,103.842
2226.4150,103.851
2227.3794,103.855
2228.3435,103.855
2229.3079,103.851
2230.2720,103.845
2231.2363,103.839
2232.2004,103.834
2233.1648,103.831
2234.1289,103.831
2235.0933,103.834
2236.0574,103.839
2237.0217,103.845
2237.9858,103.852
2238.9502,103.858
2239.9143,103.863
2240.8787,103.865
2241.8428,103.864
2242.8071,103.862
2243.7712,103.859
2244.7356,103.856
2245.6997,103.855
2246.6641,103.855
2247.6282,103.855
2248.5925,103.856
2249.5566,103.858
2250.5210,103.86
2251.4851,103.862
2252.4495,103.863
2253.4136,103.862
2254.3779,103.86
2255.3420,103.855
2256.3064,103.849
2257.2705,103.843
2258.2349,103.837
2259.1990,103.832
2260.1633,103.828
2261.1274,103.824
2262.0918,103.821
2263.0559,103.819
2264.0203,103.818
2264.9844,103.82
2265.9487,103.823
2266.9128,103.827
2267.8772,103.83
2268.8413,103.83
2269.8057,103.828
2270.7698,103.826
2271.7341,103.825
2272.6982,103.829
2273.6626,103.838
2274.6267,103.85
2275.5911,103.863
2276.5552,103.877
2277.5195,103.89
2278.4836,103.903
2279.4480,103.917
2280.4121,103.93
2281.3765,103.941
2282.3406,103.948
2283.3049,103.949
2284.2690,103.943
2285.2334,103.929
2286.1975,103.909
2287.1619,103.886
2288.1260,103.862
2289.0903,103.837
2290.0544,103.812
2291.0188,103.786
2291.9829,103.759
2292.9473,103.735
2293.9114,103.717
2294.8757,103.708
2295.8398,103.71
2296.8042,103.72
2297.7683,103.738
2298.7327,103.765
2299.6968,103.801
2300.6611,103.847
2301.6252,103.901
2302.5896,103.957
2303.5537,104.007
2304.5181,104.042
2305.4822,104.061
2306.4465,104.067
2307.4106,104.072
2308.3750,104.091
2309.3391,104.134
2310.3035,104.202
2311.2676,104.286
2312.2319,104.371
2313.1960,104.442
2314.1604,104.494
2315.1245,104.533
2316.0889,104.573
2317.0530,104.628
2318.0173,104.704
2318.9814,104.794
2319.9458,104.871
2320.9099,104.902
2321.8743,104.855
2322.8384,104.721
2323.8027,104.523
2324.7668,104.308
2325.7312,104.133
2326.6953,104.042
2327.6597,104.045
2328.6238,104.116
2329.5881,104.202
2330.5522,104.243
2331.5166,104.203
2332.4807,104.085
2333.4451,103.926
2334.4092,103.774
2335.3735,103.664
2336.3376,103.604
2337.3020,103.579
2338.2661,103.555
2339.2305,103.506
2340.1946,103.431
2341.1589,103.372
2342.1230,103.408
2343.0874,103.597
2344.0515,103.879
2345.0159,104.078
2345.9800,104.073
2346.9443,103.905
2347.9084,103.712
2348.8728,103.613
2349.8369,103.649
2350.8013,103.776
2351.7654,103.889
2352.7297,103.895
2353.6938,103.774
2354.6582,103.586
2355.6223,103.382
2356.5867,103.162
2357.5508,102.914
2358.5151,102.672
2359.4792,102.503
2360.4436,102.45
2361.4077,102.505
2362.3721,102.641
2363.3362,102.843
2364.3005,103.107
2365.2646,103.42
2366.2290,103.754
2367.1931,104.078
2368.1575,104.372
2369.1216,104.625
2370.0859,104.836
2371.0500,105.004
2372.0144,105.129
2372.9785,105.208
2373.9429,105.238
2374.9070,105.216
2375.8713,105.142
2376.8354,105.024
2377.7998,104.876
2378.7639,104.716
2379.7283,104.561
2380.6924,104.427
2381.6567,104.322
2382.6208,104.25
2383.5852,104.208
2384.5493,104.188
2385.5137,104.185
2386.4778,104.19
2387.4421,104.198
2388.4063,104.202
2389.3706,104.201
2390.3347,104.195
2391.2991,104.184
2392.2632,104.173
2393.2275,104.163
2394.1917,104.158
2395.1560,104.157
2396.1201,104.16
2397.0845,104.164
2398.0486,104.166
2399.0129,104.166
2399.9771,104.161
2400.9414,104.152
2401.9055,104.142
2402.8699,104.131
2403.8340,104.122
2404.7983,104.117
2405.7625,104.115
2406.7268,104.114
2407.6909,104.111
2408.6553,104.105
2409.6194,104.096
2410.5837,104.085
2411.5479,104.076
2412.5122,104.069
2413.4763,104.065
2414.4407,104.06
2415.4048,104.055
2416.3691,104.048
2417.3333,104.041
2418.2976,104.037
2419.2617,104.036
2420.2261,104.037
2421.1902,104.036
2422.1545,104.029
2423.1187,104.016
2424.0830,104
2425.0471,103.985
2426.0115,103.978
2426.9756,103.977
2427.9399,103.981
2428.9041,103.985
2429.8684,103.986
2430.8325,103.984
2431.7969,103.979
2432.7610,103.972
2433.7253,103.964
2434.6895,103.954
2435.6538,103.941
2436.6179,103.928
2437.5823,103.916
2438.5464,103.908
2439.5107,103.905
2440.4749,103.906
2441.4392,103.908
2442.4033,103.909
2443.3677,103.907
2444.3318,103.902
2445.2961,103.896
2446.2603,103.887
2447.2246,103.877
2448.1887,103.865
2449.1531,103.85
2450.1172,103.835
2451.0815,103.82
2452.0457,103.807
2453.0100,103.798
2453.9741,103.791
2454.9385,103.785
2455.9026,103.78
2456.8669,103.773
2457.8311,103.765
2458.7954,103.757
2459.7595,103.75
2460.7239,103.744
2461.6880,103.739
2462.6523,103.733
2463.6165,103.724
2464.5808,103.714
2465.5449,103.701
2466.5093,103.688
2467.4734,103.674
2468.4377,103.661
2469.4019,103.648
2470.3662,103.637
2471.3303,103.628
2472.2947,103.621
2473.2588,103.617
2474.2231,103.613
2475.1873,103.607
2476.1516,103.598
2477.1157,103.585
2478.0801,103.571
2479.0442,103.559
2480.0085,103.549
2480.9727,103.543
2481.9370,103.539
2482.9011,103.536
2483.8655,103.531
2484.8296,103.524
2485.7939,103.514
2486.7581,103.503
2487.7224,103.493
2488.6865,103.483
2489.6509,103.475
2490.6150,103.465
2491.5793,103.454
2492.5435,103.441
2493.5078,103.429
2494.4719,103.419
2495.4363,103.414
2496.4004,103.414
2497.3647,103.417
2498.3289,103.419
2499.2932,103.417
2500.2573,103.409
2501.2217,103.396
2502.1858,103.382
2503.1501,103.37
2504.1143,103.362
2505.0786,103.359
2506.0427,103.357
2507.0071,103.354
2507.9712,103.349
2508.9355,103.34
2509.8997,103.329
2510.8640,103.318
2511.8281,103.307
2512.7925,103.298
2513.7566,103.29
2514.7209,103.286
2515.6851,103.284
2516.6494,103.285
2517.6135,103.287
2518.5779,103.287
2519.5420,103.284
2520.5063,103.278
2521.4705,103.271
2522.4348,103.262
2523.3989,103.255
2524.3633,103.248
2525.3274,103.242
2526.2917,103.237
2527.2559,103.232
2528.2202,103.228
2529.1843,103.225
2530.1487,103.22
2531.1128,103.212
2532.0771,103.201
2533.0413,103.186
2534.0056,103.169
2534.9697,103.154
2535.9341,103.143
2536.8982,103.137
2537.8625,103.136
2538.8267,103.137
2539.7910,103.137
2540.7551,103.136
2541.7195,103.132
2542.6836,103.127
2543.6479,103.123
2544.6121,103.121
2545.5764,103.121
2546.5405,103.12
2547.5049,103.117
2548.4690,103.111
2549.4333,103.104
2550.3975,103.097
2551.3618,103.091
2552.3259,103.087
2553.2903,103.084
2554.2544,103.082
2555.2188,103.079
2556.1829,103.076
2557.1472,103.073
2558.1113,103.07
2559.0757,103.066
2560.0398,103.061
2561.0042,103.053
2561.9683,103.041
2562.9326,103.027
2563.8967,103.013
2564.8611,103.001
2565.8252,102.994
2566.7896,102.993
2567.7537,102.996
2568.7180,103
2569.6821,103.001
2570.6465,102.997
2571.6106,102.986
2572.5750,102.972
2573.5391,102.957
2574.5034,102.945
2575.4675,102.936
2576.4319,102.93
2577.3960,102.928
2578.3604,102.929
2579.3245,102.933
2580.2888,102.937
2581.2529,102.94
2582.2173,102.938
2583.1814,102.931
2584.1458,102.919
2585.1099,102.904
2586.0742,102.891
2587.0383,102.878
2588.0027,102.867
2588.9668,102.854
2589.9312,102.84
2590.8953,102.824
2591.8596,102.809
2592.8237,102.795
2593.7881,102.783
2594.7522,102.772
2595.7166,102.763
2596.6807,102.753
2597.6450,102.744
2598.6091,102.735
2599.5735,102.728
2600.5376,102.72
2601.5020,102.711
2602.4661,102.7
2603.4304,102.688
2604.3945,102.674
2605.3589,102.663
2606.3230,102.656
2607.2874,102.652
2608.2515,102.651
2609.2158,102.65
2610.1799,102.647
2611.1443,102.64
2612.1084,102.631
2613.0728,102.62
2614.0369,102.611
2615.0012,102.602
2615.9653,102.594
2616.9297,102.586
2617.8938,102.575
2618.8582,102.561
2619.8223,102.545
2620.7866,102.527
2621.7507,102.509
2622.7151,102.494
2623.6792,102.483
2624.6436,102.478
2625.6077,102.476
2626.5720,102.476
2627.5361,102.474
2628.5005,102.466
2629.4646,102.453
2630.4290,102.435
2631.3931,102.415
2632.3574,102.397
2633.3215,102.384
2634.2859,102.377
2635.2500,102.375
2636.2144,102.376
2637.1785,102.376
2638.1428,102.373
2639.1069,102.369
2640.0713,102.364
2641.0354,102.36
2641.9998,102.357
2642.9639,102.354
2643.9282,102.349
2644.8923,102.342
2645.8567,102.333
2646.8208,102.322
2647.7852,102.311
2648.7493,102.299
2649.7136,102.286
2650.6777,102.274
2651.6421,102.263
2652.6062,102.256
2653.5706,102.253
2654.5347,102.256
2655.4990,102.262
2656.4631,102.27
2657.4275,102.275
2658.3916,102.275
2659.3560,102.269
2660.3201,102.259
2661.2844,102.247
2662.2485,102.238
2663.2129,102.233
2664.1770,102.236
2665.1414,102.243
2666.1055,102.253
2667.0698,102.261
2668.0339,102.266
2668.9983,102.267
2669.9624,102.267
2670.9268,102.267
2671.8909,102.268
2672.8552,102.271
2673.8193,102.276
2674.7837,102.283
2675.7478,102.289
2676.7122,102.293
2677.6763,102.292
2678.6406,102.287
2679.6047,102.277
2680.5691,102.266
2681.5332,102.256
2682.4976,102.248
2683.4617,102.242
2684.4260,102.237
2685.3901,102.232
2686.3545,102.226
2687.3186,102.22
2688.2830,102.213
2689.2471,102.206
2690.2114,102.198
2691.1755,102.189
2692.1399,102.18
2693.1040,102.17
2694.0684,102.161
2695.0325,102.154
2695.9968,102.148
2696.9609,102.142
2697.9253,102.135
2698.8894,102.126
2699.8538,102.117
2700.8179,102.106
2701.7822,102.095
2702.7463,102.083
2703.7107,102.069
2704.6748,102.053
2705.6392,102.034
2706.6033,102.013
2707.5676,101.992
2708.5317,101.972
2709.4961,101.955
2710.4602,101.941
2711.4246,101.929
2712.3887,101.917
2713.3530,101.902
2714.3171,101.883
2715.2815,101.858
2716.2456,101.828
2717.2100,101.797
2718.1741,101.768
2719.1384,101.744
2720.1025,101.728
2721.0669,101.719
2722.0310,101.715
2722.9954,101.711
2723.9595,101.701
2724.9238,101.682
2725.8879,101.652
2726.8523,101.617
2727.8164,101.583
2728.7808,101.555
2729.7449,101.535
2730.7092,101.52
2731.6733,101.508
2732.6377,101.494
2733.6018,101.476
2734.5662,101.455
2735.5303,101.43
2736.4946,101.403
2737.4587,101.374
2738.4231,101.346
2739.3872,101.32
2740.3516,101.299
2741.3157,101.283
2742.2800,101.273
2743.2441,101.268
2744.2085,101.266
2745.1726,101.265
2746.1370,101.262
2747.1011,101.255
2748.0654,101.24
2749.0295,101.218
2749.9939,101.192
2750.9580,101.166
2751.9224,101.144
2752.8865,101.127
2753.8508,101.115
2754.8149,101.103
2755.7793,101.086
2756.7434,101.061
2757.7078,101.029
2758.6719,100.993
2759.6362,100.958
2760.6003,100.929
2761.5647,100.907
2762.5288,100.891
2763.4932,100.878
2764.4573,100.862
2765.4216,100.842
2766.3857,100.817
2767.3501,100.79
2768.3142,100.766
2769.2786,100.746
2770.2427,100.73
2771.2070,100.714
2772.1711,100.691
2773.1355,100.657
2774.0996,100.613
2775.0640,100.564
2776.0281,100.516
2776.9924,100.473
2777.9565,100.437
2778.9209,100.404
2779.8850,100.368
2780.8494,100.324
2781.8135,100.274
2782.7778,100.22
2783.7419,100.168
2784.7063,100.12
2785.6704,100.077
2786.6348,100.035
2787.5989,99.9913
2788.5632,99.9418
2789.5273,99.886
2790.4917,99.8255
2791.4558,99.7633
2792.4202,99.7017
2793.3843,99.642
2794.3486,99.5839
2795.3127,99.5258
2796.2771,99.4661
2797.2412,99.4032
2798.2056,99.3367
2799.1697,99.2665
2800.1340,99.193
2801.0981,99.1166
2802.0625,99.0377
2803.0266,98.9571
2803.9910,98.8762
2804.9551,98.7984
2805.9194,98.7218
2806.8835,98.646
2807.8479,98.5688
2808.8120,98.4876
2809.7764,98.4002
2810.7405,98.3056
2811.7048,98.2045
2812.6689,98.0984
2813.6333,97.9881
2814.5974,97.8732
2815.5618,97.7519
2816.5259,97.6222
2817.4902,97.4822
2818.4543,97.3312
2819.4187,97.1694
2820.3828,96.9972
2821.3472,96.8147
2822.3113,96.6215
2823.2756,96.4169
2824.2397,96.2005
2825.2041,95.9723
2826.1682,95.7329
2827.1326,95.4829
2828.0967,95.2224
2829.0610,94.9507
2830.0251,94.6673
2830.9895,94.3723
2831.9536,94.0678
2832.9180,93.7572
2833.8821,93.4445
2834.8464,93.1329
2835.8105,92.8244
2836.7749,92.5195
2837.7390,92.2185
2838.7034,91.9226
2839.6675,91.6342
2840.6318,91.3558
2841.5959,91.0888
2842.5603,90.8318
2843.5244,90.581
2844.4888,90.3315
2845.4529,90.0808
2846.4172,89.8306
2847.3813,89.5865
2848.3457,89.3562
2849.3098,89.1446
2850.2742,88.9511
2851.2383,88.77
2852.2026,88.593
2853.1667,88.4144
2854.1311,88.2327
2855.0952,88.0509
2856.0596,87.8727
2857.0237,87.6995
2857.9880,87.5287
2858.9521,87.3544
2859.9165,87.1709
2860.8806,86.9744
2861.8450,86.7648
2862.8091,86.545
2863.7734,86.3204
2864.7375,86.097
2865.7019,85.8801
2866.6660,85.6728
2867.6304,85.4758
2868.5945,85.2871
2869.5588,85.1041
2870.5229,84.9246
2871.4873,84.7484
2872.4514,84.5763
2873.4158,84.4094
2874.3799,84.2475
2875.3442,84.089
2876.3083,83.931
2877.2727,83.7709
2878.2368,83.6078
2879.2012,83.4444
2880.1653,83.2875
2881.1296,83.1471
2882.0938,83.0346
2883.0581,82.9587
2884.0222,82.9226
2884.9866,82.9226
2885.9507,82.9485
2886.9150,82.986
2887.8792,83.0206
2888.8435,83.0419
2889.8076,83.0473
2890.7720,83.0432
2891.7361,83.0407
2892.7004,83.0482
2893.6646,83.061
2894.6289,83.0584
2895.5930,83.0112
2896.5574,82.8973
2897.5215,82.7192
2898.4858,82.5087
2899.4500,82.3167
2900.4143,82.1896
2901.3784,82.1483
2902.3428,82.1789
2903.3069,82.2433
2904.2712,82.2986
2905.2354,82.3155
2906.1997,82.2847
2907.1638,82.2131
2908.1282,82.1134
2909.0923,81.997
2910.0566,81.8723
2911.0208,81.7449
2911.9851,81.6195
2912.9492,81.4984
2913.9136,81.3799
2914.8777,81.2589
2915.8420,81.1286
2916.8062,80.9841
2917.7705,80.8243
2918.7346,80.6524
2919.6990,80.4747
2920.6631,80.2984
2921.6274,80.1298
2922.5916,79.9723
2923.5559,79.8261
2924.5200,79.6886
2925.4844,79.5568
2926.4485,79.4299
2927.4128,79.3102
2928.3770,79.2026
2929.3413,79.1123
2930.3054,79.0431
2931.2698,78.9968
2932.2339,78.9744
2933.1982,78.9772
2934.1624,79.0073
2935.1267,79.0667
2936.0908,79.1551
2937.0552,79.2703
2938.0193,79.4088
2938.9836,79.5675
2939.9478,79.7458
2940.9121,79.9455
2941.8762,80.1694
2942.8406,80.4177
2943.8047,80.6863
2944.7690,80.9663
2945.7332,81.2454
2946.6975,81.5121
2947.6616,81.7586
2948.6260,81.982
2949.5901,82.1839
2950.5544,82.3677
2951.5186,82.5369
2952.4829,82.6942
2953.4470,82.842
2954.4114,82.9831
2955.3755,83.1207
2956.3398,83.2585
2957.3040,83.3992
2958.2683,83.5431
2959.2324,83.6881
2960.1968,83.8293
2961.1609,83.9606
2962.1252,84.0766
2963.0894,84.1743
2964.0537,84.2548
2965.0178,84.3226
2965.9822,84.3843
2966.9463,84.4479
2967.9106,84.5213
2968.8748,84.6132
2969.8391,84.7311
2970.8032,84.8807
2971.7676,85.0629
2972.7317,85.2728
2973.6960,85.5012
2974.6602,85.7381
2975.6245,85.9758
2976.5886,86.211
2977.5530,86.444
2978.5171,86.6765
2979.4814,86.9083
2980.4456,87.1349
2981.4099,87.3459
2982.3740,87.5262
2983.3384,87.6612
2984.3025,87.7475
2985.2668,87.8022
2986.2310,87.8665
2987.1953,87.9949
2988.1594,88.2334
2989.1238,88.5957
2990.0879,89.0526
2991.0522,89.5417
2992.0164,89.9949
2992.9807,90.3665
2993.9448,90.6495
2994.9092,90.8701
2995.8733,91.0679
2996.8376,91.2739
2997.8018,91.5003
2998.7661,91.743
2999.7302,91.9924
3000.6946,92.2432
3001.6587,92.4968
3002.6230,92.7584
3003.5872,93.0323
3004.5515,93.3181
3005.5156,93.6112
3006.4800,93.9047
3007.4441,94.1915
3008.4084,94.4669
3009.3726,94.7299
3010.3369,94.9836
3011.3010,95.2335
3012.2654,95.485
3013.2295,95.74
3014.1938,95.9958
3015.1580,96.2458
3016.1223,96.4833
3017.0864,96.7035
3018.0508,96.9054
3019.0149,97.0911
3019.9792,97.2638
3020.9434,97.4268
3021.9077,97.5831
3022.8718,97.7347
3023.8362,97.883
3024.8003,98.0273
3025.7646,98.1656
3026.7288,98.2947
3027.6931,98.4127
3028.6572,98.5199
3029.6216,98.6192
3030.5857,98.7145
3031.5500,98.8089
3032.5142,98.9023
3033.4785,98.9923
3034.4426,99.0762
3035.4070,99.1525
3036.3711,99.2218
3037.3354,99.2856
3038.2996,99.3444
3039.2639,99.3965
3040.2280,99.4383
3041.1924,99.466
3042.1565,99.4779
3043.1208,99.4756
3044.0850,99.4639
3045.0493,99.4494
3046.0134,99.438
3046.9778,99.4097
3047.9419,99.381
3048.9063,99.3513
3049.8704,99.3138
3050.8347,99.2633
3051.7988,99.1992
3052.7632,99.1254
3053.7273,99.0489
3054.6917,98.9763
3055.6558,98.9118
3056.6201,98.8553
3057.5842,98.8033
3058.5486,98.7501
3059.5127,98.69
3060.4771,98.6194
3061.4412,98.538
3062.4055,98.4494
3063.3696,98.3607
3064.3340,98.2795
3065.2981,98.2107
3066.2625,98.1541
3067.2266,98.1045
3068.1909,98.0548
3069.1550,97.9994
3070.1194,97.9369
3071.0835,97.8689
3072.0479,97.7979
3073.0120,97.7251
3073.9763,97.6495
3074.9404,97.5697
3075.9048,97.4852
3076.8689,97.3984
3077.8333,97.3131
3078.7974,97.2331
3079.7617,97.1598
3080.7258,97.0919
3081.6902,97.0261
3082.6543,96.9595
3083.6187,96.8908
3084.5828,96.8206
3085.5471,96.7508
3086.5112,96.6826
3087.4756,96.615
3088.4397,96.5449
3089.4041,96.4677
3090.3682,96.3803
3091.3325,96.2822
3092.2966,96.1769
3093.2610,96.0696
3094.2251,95.9653
3095.1895,95.8664
3096.1536,95.7723
3097.1179,95.6806
3098.0820,95.5898
3099.0464,95.4997
3100.0105,95.4111
3100.9749,95.324
3101.9390,95.2373
3102.9033,95.1488
3103.8674,95.0576
3104.8318,94.9643
3105.7959,94.8713
3106.7603,94.7798
3107.7244,94.6889
3108.6887,94.5948
3109.6528,94.4938
3110.6172,94.3841
3111.5813,94.2676
3112.5457,94.1491
3113.5098,94.0337
3114.4741,93.9246
3115.4382,93.8218
3116.4026,93.723
3117.3667,93.6258
3118.3311,93.5293
3119.2952,93.4345
3120.2595,93.3435
3121.2236,93.2568
3122.1880,93.1731
3123.1521,93.0888
3124.1165,92.9998
3125.0806,92.9035
3126.0449,92.799
3127.0090,92.6878
3127.9734,92.572
3128.9375,92.4544
3129.9019,92.3375
3130.8660,92.2242
3131.8303,92.1167
3132.7944,92.0158
3133.7588,91.9202
3134.7229,91.8263
3135.6873,91.7305
3136.6514,91.6304
3137.6157,91.5265
3138.5798,91.4212
3139.5442,91.3168
3140.5083,91.2142
3141.4727,91.1125
3142.4368,91.0093
3143.4011,90.9027
3144.3652,90.7925
3145.3296,90.6798
3146.2937,90.5665
3147.2581,90.4547
3148.2222,90.3453
3149.1865,90.238
3150.1506,90.1315
3151.1150,90.0237
3152.0791,89.9132
3153.0435,89.7997
3154.0076,89.6843
3154.9719,89.5685
3155.9360,89.4527
3156.9004,89.3363
3157.8645,89.2182
3158.8289,89.0981
3159.7930,88.9781
3160.7573,88.8614
3161.7214,88.7504
3162.6858,88.6445
3163.6499,88.5405
3164.6143,88.4343
3165.5784,88.3243
3166.5427,88.2123
3167.5068,88.1024
3168.4712,87.9972
3169.4353,87.9381
3170.3997,87.833
3171.3638,87.7176
3172.3281,87.5888
3173.2922,87.4495
3174.2566,87.3083
3175.2207,87.1746
3176.1851,87.0542
3177.1492,86.9468
3178.1135,86.8461
3179.0776,86.7444
3180.0420,86.6362
3181.0061,86.521
3181.9705,86.4026
3182.9346,86.2862
3183.8989,86.1755
3184.8630,86.0703
3185.8274,85.9674
3186.7915,85.8624
3187.7559,85.7522
3188.7200,85.6373
3189.6843,85.5207
3190.6484,85.4061
3191.6128,85.2957
3192.5769,85.1884
3193.5413,85.081
3194.5054,84.9702
3195.4697,84.8552
3196.4338,84.7384
3197.3982,84.6243
3198.3623,84.5168
3199.3267,84.417
3200.2908,84.3227
3201.2551,84.229
3202.2192,84.1309
3203.1836,84.025
3204.1477,83.9109
3205.1121,83.7917
3206.0762,83.6728
3207.0405,83.5602
3208.0046,83.4574
3208.9690,83.3639
3209.9331,83.2749
3210.8975,83.1839
3211.8616,83.0858
3212.8259,82.9798
3213.7900,82.8696
3214.7544,82.7611
3215.7185,82.6585
3216.6829,82.5624
3217.6470,82.4702
3218.6113,82.3783
3219.5754,82.2846
3220.5398,82.1891
3221.5039,82.0931
3222.4683,81.9974
3223.4324,81.9011
3224.3967,81.8027
3225.3608,81.7017
3226.3252,81.5997
3227.2893,81.5002
3228.2537,81.4071
3229.2178,81.3223
3230.1821,81.2453
3231.1462,81.1731
3232.1106,81.1022
3233.0747,81.0301
3234.0391,80.9561
3235.0032,80.8798
3235.9675,80.8012
3236.9316,80.7196
3237.8960,80.6339
3238.8601,80.544
3239.8245,80.451
3240.7886,80.3574
3241.7529,80.267
3242.7170,80.1829
3243.6814,80.1074
3244.6455,80.0405
3245.6099,79.9799
3246.5740,79.9215
3247.5383,79.8607
3248.5024,79.7944
3249.4668,79.721
3250.4309,79.6412
3251.3953,79.5577
3252.3594,79.4734
3253.3237,79.3915
3254.2878,79.3139
3255.2522,79.2413
3256.2163,79.1739
3257.1807,79.1112
3258.1448,79.0528
3259.1091,78.9978
3260.0732,78.9445
3261.0376,78.8899
3262.0017,78.8312
3262.9661,78.7663
3263.9302,78.6948
3264.8945,78.6183
3265.8586,78.5392
3266.8230,78.4592
3267.7871,78.379
3268.7515,78.2991
3269.7156,78.2209
3270.6799,78.1476
3271.6440,78.0832
3272.6084,78.0305
3273.5725,77.9891
3274.5369,77.9551
3275.5010,77.9231
3276.4653,77.8887
3277.4294,77.85
3278.3938,77.8077
3279.3579,77.7631
3280.3223,77.7171
3281.2864,77.6692
3282.2507,77.6187
3283.2148,77.5648
3284.1792,77.5072
3285.1433,77.446
3286.1077,77.3821
3287.0718,77.3171
3288.0361,77.2535
3289.0002,77.1942
3289.9646,77.1411
3290.9287,77.0941
3291.8931,77.0515
3292.8572,77.0109
3293.8215,76.971
3294.7856,76.9319
3295.7500,76.8939
3296.7141,76.8566
3297.6785,76.818
3298.6426,76.7759
3299.6069,76.7296
3300.5710,76.6809
3301.5354,76.6332
3302.4995,76.5893
3303.4639,76.5495
3304.4280,76.5126
3305.3923,76.4766
3306.3564,76.4418
3307.3208,76.411
3308.2849,76.3877
3309.2493,76.374
3310.2134,76.3679
3311.1777,76.3638
3312.1418,76.3552
3313.1062,76.3369
3314.0703,76.3076
3315.0347,76.27
3315.9988,76.229
3316.9631,76.1895
3317.9272,76.1546
3318.8916,76.125
3319.8557,76.0997
3320.8201,76.0769
3321.7842,76.0551
3322.7485,76.0335
3323.7126,76.0118
3324.6770,75.99
3325.6411,75.9685
3326.6055,75.9479
3327.5696,75.9292
3328.5339,75.9123
3329.4980,75.8965
3330.4624,75.88
3331.4265,75.8615
3332.3909,75.8416
3333.3550,75.8225
3334.3193,75.8073
3335.2834,75.7969
3336.2478,75.7891
3337.2119,75.7794
3338.1763,75.7645
3339.1404,75.7454
3340.1047,75.7276
3341.0688,75.7171
3342.0332,75.7159
3342.9973,75.72
3343.9617,75.7213
3344.9258,75.713
3345.8901,75.6947
3346.8542,75.6735
3347.8186,75.6602
3348.7827,75.6632
3349.7471,75.6837
3350.7112,75.7149
3351.6755,75.7453
3352.6396,75.7639
3353.6040,75.765
3354.5681,75.7506
3355.5325,75.7294
3356.4966,75.7125
3357.4609,75.7087
3358.4250,75.7195
3359.3894,75.739
3360.3535,75.7563
3361.3179,75.7622
3362.2820,75.7541
3363.2463,75.7373
3364.2104,75.7223
3365.1748,75.7188
3366.1389,75.7312
3367.1033,75.7573
3368.0674,75.7914
3369.0317,75.8279
3369.9958,75.864
3370.9602,75.8987
3371.9243,75.9317
3372.8887,75.9612
3373.8528,75.9853
3374.8171,76.0033
3375.7813,76.0174
3376.7456,76.0324
3377.7097,76.0538
3378.6741,76.0847
3379.6382,76.1238
3380.6025,76.1658
3381.5667,76.2037
3382.5310,76.2319
3383.4951,76.2497
3384.4595,76.2613
3385.4236,76.2736
3386.3879,76.2928
3387.3521,76.321
3388.3164,76.3563
3389.2805,76.3939
3390.2449,76.4301
3391.2090,76.4643
3392.1733,76.4994
3393.1375,76.5399
3394.1018,76.5893
3395.0659,76.6485
3396.0303,76.7153
3396.9944,76.7849
3397.9587,76.8518
3398.9229,76.9113
3399.8872,76.9614
3400.8513,77.003
3401.8157,77.0399
3402.7798,77.0768
3403.7441,77.1179
3404.7083,77.1656
3405.6726,77.2202
3406.6367,77.2802
3407.6011,77.3435
3408.5652,77.4081
3409.5295,77.4722
3410.4937,77.5341
3411.4580,77.5923
3412.4221,77.6448
3413.3865,77.6905
3414.3506,77.7299
3415.3149,77.7658
3416.2791,77.8031
3417.2434,77.8479
3418.2075,77.9058
3419.1719,77.9795
3420.1360,78.0676
3421.1003,78.1643
3422.0645,78.2618
3423.0288,78.3533
3423.9929,78.4353
3424.9573,78.5084
3425.9214,78.5759
3426.8857,78.6428
3427.8499,78.7138
3428.8142,78.7919
3429.7783,78.8771
3430.7427,78.9675
3431.7068,79.0598
3432.6711,79.1514
3433.6353,79.2404
3434.5996,79.3255
3435.5637,79.4058
3436.5281,79.4804
3437.4922,79.5495
3438.4565,79.6144
3439.4207,79.6777
3440.3850,79.742
3441.3491,79.8096
3442.3135,79.8813
3443.2776,79.9578
3444.2419,80.0398
3445.2061,80.1285
3446.1704,80.2241
3447.1345,80.3256
3448.0989,80.4304
3449.0630,80.536
3450.0273,80.6415
3450.9915,80.747
3451.9558,80.8517
3452.9199,80.9528
3453.8843,81.0472
3454.8484,81.1335
3455.8127,81.2139
3456.7769,81.2931
3457.7412,81.3756
3458.7053,81.4628
3459.6697,81.5531
3460.6338,81.6433
3461.5981,81.7314
3462.5623,81.8188
3463.5266,81.9091
3464.4907,82.0061
3465.4551,82.1113
3466.4192,82.2224
3467.3835,82.3341
3468.3477,82.441
3469.3120,82.54
3470.2761,82.6321
3471.2405,82.7221
3472.2046,82.8161
3473.1689,82.9177
3474.1331,83.0259
3475.0974,83.1347
3476.0615,83.2371
3477.0259,83.329
3477.9900,83.4124
3478.9543,83.4943
3479.9185,83.583
3480.8828,83.6838
3481.8469,83.7953
3482.8113,83.9114
3483.7754,84.0251
3484.7397,84.1336
3485.7039,84.239
3486.6682,84.3462
3487.6323,84.4593
3488.5967,84.5787
3489.5608,84.7005
3490.5251,84.8192
3491.4893,84.9312
3492.4536,85.0375
3493.4177,85.1432
3494.3821,85.2545
3495.3462,85.3738
3496.3105,85.4963
3497.2747,85.6124
3498.2390,85.7142
3499.2031,85.8022
3500.1675,85.8869
3501.1316,85.9852
3502.0959,86.1109
3503.0601,86.2632
3504.0244,86.4256
3504.9885,86.5777
3505.9529,86.7097
3506.9170,86.8259
3507.8813,86.9386
3508.8455,87.0595
3509.8098,87.193
3510.7739,87.3343
3511.7383,87.475
3512.7024,87.6103
3513.6667,87.7416
3514.6309,87.8729
3515.5952,88.0064
3516.5593,88.1399
3517.5237,88.269
3518.4878,88.39
3519.4521,88.5028
3520.4163,88.6104
3521.3806,88.7165
3522.3447,88.8236
3523.3091,88.9327
3524.2732,89.0451
3525.2375,89.1655
3526.2017,89.3012
3527.1660,89.4572
3528.1301,89.6305
3529.0945,89.8077
3530.0586,89.9717
3531.0229,90.1134
3531.9871,90.2367
3532.9514,90.3558
3533.9155,90.4866
3534.8799,90.6374
3535.8440,90.8036
3536.8083,90.9692
3537.7725,91.1153
3538.7368,91.2312
3539.7009,91.3194
3540.6653,91.3925
3541.6294,91.4675
3542.5938,91.5613
3543.5579,91.6883
3544.5222,91.8539
3545.4863,92.0467
3546.4507,92.2398
3547.4148,92.4078
3548.3792,92.5442
3549.3433,92.6622
3550.3076,92.7834
3551.2717,92.9253
3552.2361,93.0926
3553.2002,93.2741
3554.1646,93.4503
3555.1287,93.6068
3556.0930,93.7407
3557.0571,93.8573
3558.0215,93.9621
3558.9856,94.0572
3559.9500,94.142
3560.9141,94.2153
3561.8784,94.2782
3562.8425,94.3345
3563.8069,94.392
3564.7710,94.4712
3565.7354,94.6121
3566.6995,94.8414
3567.6638,95.1178
3568.6279,95.3561
3569.5923,95.5121
3570.5564,95.6037
3571.5208,95.6703
3572.4849,95.7393
3573.4492,95.8198
3574.4133,95.9095
3575.3777,96.0039
3576.3418,96.1011
3577.3062,96.2015
3578.2703,96.305
3579.2346,96.4085
3580.1987,96.5068
3581.1631,96.5966
3582.1272,96.6791
3583.0916,96.7571
3584.0557,96.8309
3585.0200,96.9022
3585.9841,96.9844
3586.9485,97.0949
3587.9126,97.2195
3588.8770,97.3136
3589.8411,97.3545
3590.8054,97.3605
3591.7695,97.3633
3592.7339,97.3839
3593.6980,97.4267
3594.6624,97.4832
3595.6265,97.5385
3596.5908,97.5828
3597.5549,97.6221
3598.5193,97.6749
3599.4834,97.7576
3600.4478,97.8687
3601.4119,97.9885
3602.3762,98.0954
3603.3403,98.1828
3604.3047,98.2594
3605.2688,98.3393
3606.2332,98.434
3607.1973,98.547
3608.1616,98.6666
3609.1257,98.7665
3610.0901,98.8238
3611.0542,98.8358
3612.0186,98.8205
3612.9829,98.8023
3613.9470,98.7987
3614.9114,98.8146
3615.8755,98.8454
3616.8398,98.8846
3617.8040,98.9316
3618.7683,98.9877
3619.7324,99.0389
3620.6968,99.0558
3621.6609,99.0283
3622.6252,98.9863
3623.5894,98.977
3624.5537,99.028
3625.5178,99.1285
3626.4822,99.239
3627.4463,99.335
3628.4106,99.4238
3629.3748,99.4897
3630.3391,99.4859
3631.3032,99.4129
3632.2676,99.324
3633.2317,99.2678
3634.1960,99.2571
3635.1602,99.2751
3636.1245,99.2969
3637.0886,99.3069
3638.0530,99.3027
3639.0171,99.2879
3639.9814,99.2639
3640.9456,99.2299
3641.9099,99.1887
3642.8740,99.1509
3643.8384,99.1267
3644.8025,99.1081
3645.7668,99.0578
3646.7310,98.9383
3647.6953,98.803
3648.6594,98.8138
3649.6238,98.9938
3650.5879,99.1527
3651.5522,99.1826
3652.5164,99.1295
3653.4807,99.0642
3654.4448,99.0142
3655.4092,98.9708
3656.3733,98.9178
3657.3376,98.8493
3658.3018,98.7745
3659.2661,98.7123
3660.2302,98.6789
3661.1946,98.6751
3662.1587,98.6886
3663.1230,98.7071
3664.0872,98.7309
3665.0515,98.7664
3666.0156,98.8097
3666.9800,98.8359
3667.9441,98.8188
3668.9084,98.7665
3669.8726,98.7193
3670.8369,98.7009
3671.8010,98.7032
3672.7654,98.7066
3673.7295,98.6981
3674.6938,98.694
3675.6580,98.7344
3676.6223,98.8165
3677.5864,98.8876
3678.5508,98.9207
3679.5149,98.9291
3680.4792,98.9287
3681.4434,98.9226
3682.4077,98.9129
3683.3718,98.9118
3684.3362,98.9338
3685.3003,98.9743
3686.2646,98.9976
3687.2288,98.9587
3688.1931,98.8643
3689.1572,98.7936
3690.1216,98.8059
3691.0857,98.8742
3692.0500,98.9515
3693.0142,99.0232
3693.9785,99.0943
3694.9426,99.1704
3695.9070,99.2541
3696.8711,99.3476
3697.8354,99.4513
3698.7996,99.5615
3699.7639,99.6709
3700.7280,99.7718
3701.6924,99.857
3702.6565,99.9176
3703.6208,99.9496
3704.5850,99.9613
3705.5493,99.9677
3706.5134,99.975
3707.4778,99.974
3708.4419,99.9569
3709.4063,99.9559
3710.3704,100.048
3711.3347,100.26
3712.2988,100.496
3713.2632,100.643
3714.2273,100.675
3715.1917,100.635
3716.1558,100.569
3717.1201,100.498
3718.0842,100.422
3719.0486,100.337
3720.0127,100.246
3720.9771,100.164
3721.9412,100.108
3722.9055,100.091
3723.8696,100.115
3724.8340,100.167
3725.7981,100.224
3726.7625,100.267
3727.7266,100.291
3728.6909,100.306
3729.6550,100.318
3730.6194,100.32
3731.5835,100.294
3732.5479,100.233
3733.5120,100.178
3734.4763,100.196
3735.4404,100.289
3736.4048,100.365
3737.3689,100.36
3738.3333,100.317
3739.2974,100.325
3740.2617,100.444
3741.2258,100.669
3742.1902,100.915
3743.1543,101.057
3744.1187,101.008
3745.0828,100.782
3746.0471,100.473
3747.0112,100.201
3747.9756,100.012
3748.9397,99.9366
3749.9041,99.9937
3750.8682,100.161
3751.8325,100.318
3752.7966,100.349
3753.7610,100.261
3754.7251,100.134
3755.6895,100.03
3756.6536,99.9746
3757.6179,99.9677
3758.5820,100.002
3759.5464,100.059
3760.5105,100.112
3761.4749,100.148
3762.4390,100.171
3763.4033,100.187
3764.3674,100.2
3765.3318,100.209
3766.2959,100.214
3767.2603,100.218
3768.2244,100.228
3769.1887,100.248
3770.1528,100.277
3771.1172,100.302
3772.0813,100.312
3773.0457,100.308
3774.0098,100.301
3774.9741,100.297
3775.9382,100.292
3776.9026,100.277
3777.8667,100.249
3778.8311,100.216
3779.7952,100.183
3780.7595,100.145
3781.7236,100.103
3782.6880,100.064
3783.6521,100.045
3784.6165,100.057
3785.5806,100.102
3786.5449,100.168
3787.5090,100.237
3788.4734,100.293
3789.4375,100.328
3790.4019,100.346
3791.3660,100.349
3792.3303,100.331
3793.2944,100.284
3794.2588,100.206
3795.2229,100.111
3796.1873,100.027
3797.1514,99.9797
3798.1157,99.9752
3799.0798,99.9975
3800.0442,100.026
3801.0083,100.048
3801.9727,100.061
3802.9368,100.068
3803.9011,100.084
3804.8652,100.128
3805.8296,100.2
3806.7937,100.275
3807.7581,100.314
3808.7222,100.296
3809.6865,100.246
3810.6506,100.217
3811.6150,100.244
3812.5791,100.316
3813.5435,100.379
3814.5076,100.377
3815.4719,100.296
3816.4360,100.165
3817.4004,100.032
3818.3645,99.9367
3819.3289,99.9042
3820.2930,99.9371
3821.2573,100.002
3822.2214,100.039
3823.1858,100.02
3824.1499,99.9667
3825.1143,99.9235
3826.0784,99.9203
3827.0427,99.9594
3828.0068,100.022
3828.9712,100.082
3829.9353,100.122
3830.8997,100.139
3831.8638,100.142
3832.8281,100.14
3833.7922,100.135
3834.7566,100.113
3835.7207,100.053
3836.6851,99.954
3837.6492,99.8473
3838.6135,99.7819
3839.5776,99.7845
3840.5420,99.8481
3841.5061,99.949
3842.4705,100.059
3843.4346,100.144
3844.3989,100.174
3845.3630,100.14
3846.3274,100.069
3847.2915,100.014
3848.2559,100.028
3849.2200,100.138
3850.1843,100.322
3851.1484,100.515
3852.1128,100.668
3853.0769,100.776
3854.0413,100.793
3855.0054,100.652
3855.9697,100.41
3856.9338,100.187
3857.8982,100.062
3858.8623,100.041
3859.8267,100.076
3860.7908,100.103
3861.7551,100.085
3862.7192,100.04
3863.6836,100.016
3864.6477,100.046
3865.6121,100.119
3866.5762,100.202
3867.5405,100.262
3868.5046,100.276
3869.4690,100.247
3870.4331,100.199
3871.3975,100.158
3872.3616,100.132
3873.3259,100.116
3874.2900,100.109
3875.2544,100.116
3876.2185,100.137
3877.1829,100.16
3878.1470,100.17
3879.1113,100.154
3880.0754,100.124
3881.0398,100.11
3882.0039,100.135
3882.9683,100.204
3883.9324,100.295
3884.8967,100.374
3885.8608,100.408
3886.8252,100.388
3887.7893,100.33
3888.7537,100.258
3889.7178,100.191
3890.6821,100.144
3891.6462,100.124
3892.6106,100.124
3893.5747,100.13
3894.5391,100.141
3895.5032,100.164
3896.4675,100.199
3897.4316,100.23
3898.3960,100.241
3899.3601,100.227
3900.3245,100.194
3901.2886,100.153
3902.2529,100.116
3903.2170,100.098
3904.1814,100.105
3905.1455,100.127
3906.1099,100.151
3907.0740,100.17
3908.0383,100.189
3909.0024,100.207
3909.9668,100.222
3910.9309,100.233
3911.8953,100.242
3912.8594,100.25
3913.8237,100.259
3914.7878,100.263
3915.7522,100.258
3916.7163,100.244
3917.6807,100.224
3918.6448,100.197
3919.6091,100.162
3920.5732,100.123
3921.5376,100.086
3922.5017,100.06
3923.4661,100.048
3924.4302,100.048
3925.3945,100.049
3926.3586,100.041
3927.3230,100.02
3928.2871,99.99
3929.2515,99.9593
3930.2156,99.941
3931.1799,99.9476
3932.1440,99.9817
3933.1084,100.031
3934.0725,100.079
3935.0369,100.115
3936.0010,100.137
3936.9653,100.147
3937.9294,100.146
3938.8938,100.132
3939.8579,100.11
3940.8223,100.089
3941.7864,100.081
3942.7507,100.092
3943.7148,100.113
3944.6792,100.128
3945.6433,100.126
3946.6077,100.103
3947.5718,100.067
3948.5361,100.034
3949.5002,100.02
3950.4646,100.028
3951.4287,100.051
3952.3931,100.081
3953.3572,100.107
3954.3215,100.124
3955.2856,100.129
3956.2500,100.122
3957.2141,100.108
3958.1785,100.09
3959.1426,100.077
3960.1069,100.072
3961.0710,100.077
3962.0354,100.091
3962.9995,100.106
3963.9639,100.119
3964.9280,100.125
3965.8923,100.123
3966.8564,100.114
3967.8208,100.098
3968.7849,100.077
3969.7493,100.054
3970.7134,100.032
3971.6777,100.016
3972.6418,100.01
3973.6062,100.017
3974.5703,100.032
3975.5347,100.052
3976.4988,100.07
3977.4631,100.079
3978.4272,100.078
3979.3916,100.072
3980.3557,100.064
3981.3201,100.06
3982.2842,100.06
3983.2485,100.061
3984.2126,100.061
3985.1770,100.057
3986.1411,100.051
3987.1055,100.043
3988.0696,100.034
3989.0339,100.021
3989.9980,100.001
3990.9624,99.976
3991.9265,99.9518
3992.8909,99.9375
3993.8550,99.9396
3994.8193,99.9572
3995.7834,99.9812
3996.7478,99.9992
3997.7119,100.003
3998.6763,99.9914
3999.6404,99.9725
4000.6047,99.8202

##### Extended Information
[Comments]
Sample name
Comment
User
Division
Company,HANKYONG

[Detailed Information]
Creation date,4/24/2024 11:05 AM

Data array type,Linear data array
Horizontal axis,Wavenumber [cm-1]
Vertical axis,%T
Start,649.893 cm-1
End,4000.6 cm-1
Data interval,0.964233 cm-1
Data points,3476    

[Measurement Information]
Model Name,FT/IR-4700typeA
Serial Number,D056761788

Accessory,ATR PRO ONE
Accessory S/N,C174761809
Incident angle,45 deg

Measurement Date,4/24/2024 11:04 AM

Light Source,Standard
Detector,TGS
Accumulation,32
Resolution,4 cm-1
Zero Filling,On
Apodization,Cosine
Gain,Auto (4)
Aperture,Auto (7.1 mm)
Scanning Speed,Auto (2 mm/sec)
Filter,Auto (30000 Hz)

