TITLE,
DATA TYPE,INFRARED SPECTRUM
ORIGIN,JASCO
OWNER,
DATE,24/04/24
TIME,15:17:11
SPECTROMETER/DATA SYSTEM,
LOCALE,1033
RESOLUTION,
DELTAX,0.964233
XUNITS,1/CM
YUNITS,TRANSMITTANCE
FIRSTX,  649.8934
LASTX, 4000.6047
NPOINTS,    3476
FIRSTY,    99.11698
MAXY,   100.80880
MINY,    78.70745
XYDATA
649.8934,99.117
650.8576,99.2077
651.8218,99.2711
652.7861,99.3069
653.7503,99.2999
654.7145,99.2439
655.6788,99.1515
656.6430,99.0512
657.6072,98.9711
658.5715,98.9218
659.5357,98.8916
660.4999,98.8593
661.4642,98.8185
662.4284,98.7919
663.3926,98.8253
664.3569,98.9741
665.3211,99.2919
666.2853,99.8026
667.2496,100.411
668.2138,100.809
669.1780,100.706
670.1423,100.237
671.1065,99.7382
672.0707,99.3853
673.0350,99.1968
673.9992,99.1309
674.9634,99.1309
675.9277,99.2067
676.8919,99.2882
677.8561,99.3541
678.8204,99.4171
679.7846,99.4833
680.7488,99.5435
681.7131,99.5818
682.6773,99.5895
683.6415,99.573
684.6058,99.5497
685.5700,99.5375
686.5342,99.544
687.4985,99.5629
688.4627,99.5781
689.4269,99.5727
690.3912,99.5391
691.3554,99.4829
692.3196,99.4208
693.2839,99.3711
694.2481,99.3418
695.2123,99.3253
696.1766,99.3058
697.1408,99.2718
698.1050,99.2231
699.0693,99.1704
700.0335,99.1287
700.9977,99.1082
701.9620,99.1106
702.9262,99.1292
703.8904,99.154
704.8547,99.1761
705.8189,99.1908
706.7831,99.1976
707.7474,99.2
708.7116,99.2039
709.6758,99.2154
710.6401,99.238
711.6043,99.27
712.5685,99.3054
713.5328,99.3383
714.4970,99.3689
715.4612,99.414
716.4255,99.4599
717.3897,99.5171
718.3539,99.5707
719.3182,99.595
720.2824,99.5681
721.2466,99.4879
722.2109,99.3762
723.1751,99.2642
724.1393,99.1749
725.1036,99.1135
726.0678,99.07
727.0320,99.0306
727.9963,98.9886
728.9605,98.9484
729.9247,98.9209
730.8890,98.9147
731.8532,98.9294
732.8174,98.9556
733.7817,98.9802
734.7459,98.9929
735.7101,98.9902
736.6744,98.9759
737.6386,98.9585
738.6028,98.9468
739.5671,98.9446
740.5313,98.9488
741.4955,98.9505
742.4598,98.9398
743.4240,98.9122
744.3882,98.8717
745.3525,98.8291
746.3167,98.7956
747.2809,98.7765
748.2452,98.7694
749.2094,98.7674
750.1736,98.765
751.1379,98.7611
752.1021,98.7577
753.0663,98.7559
754.0306,98.7525
754.9948,98.7415
755.9590,98.7175
756.9233,98.6794
757.8875,98.6309
758.8517,98.5774
759.8160,98.5223
760.7802,98.4667
761.7444,98.4111
762.7087,98.3579
763.6729,98.3119
764.6371,98.2775
765.6014,98.2562
766.5656,98.2457
767.5298,98.2424
768.4941,98.2446
769.4583,98.2529
770.4225,98.2685
771.3868,98.2898
772.3510,98.3111
773.3152,98.3248
774.2795,98.3257
775.2437,98.3136
776.2079,98.2933
777.1722,98.2707
778.1364,98.2502
779.1006,98.233
780.0649,98.2188
781.0291,98.207
781.9933,98.1978
782.9576,98.1916
783.9218,98.1884
784.8860,98.1875
785.8503,98.1876
786.8145,98.186
787.7787,98.1786
788.7430,98.1597
789.7072,98.1238
790.6714,98.0681
791.6357,97.9949
792.5999,97.912
793.5641,97.8301
794.5284,97.7588
795.4926,97.7019
796.4568,97.6563
797.4211,97.6133
798.3853,97.5619
799.3495,97.4938
800.3138,97.4065
801.2780,97.3044
802.2422,97.1961
803.2065,97.0906
804.1707,96.9943
805.1349,96.9093
806.0992,96.8344
807.0634,96.7669
808.0276,96.7045
808.9919,96.6454
809.9561,96.5874
810.9203,96.5284
811.8846,96.4669
812.8488,96.402
813.8130,96.3335
814.7773,96.2607
815.7415,96.1813
816.7057,96.0931
817.6700,95.9964
818.6342,95.8963
819.5984,95.8017
820.5627,95.7217
821.5269,95.6607
822.4911,95.6155
823.4554,95.5776
824.4196,95.5375
825.3839,95.4902
826.3481,95.4378
827.3123,95.387
828.2766,95.3459
829.2408,95.3195
830.2050,95.3089
831.1693,95.3118
832.1335,95.325
833.0977,95.3469
834.0620,95.378
835.0262,95.4205
835.9904,95.4772
836.9547,95.5493
837.9189,95.6354
838.8831,95.7325
839.8474,95.8366
840.8116,95.9445
841.7758,96.054
842.7401,96.164
843.7043,96.2733
844.6685,96.3798
845.6328,96.4808
846.5970,96.5738
847.5612,96.6572
848.5255,96.7311
849.4897,96.7978
850.4539,96.8616
851.4182,96.9282
852.3824,97.0033
853.3466,97.0915
854.3109,97.1948
855.2751,97.3124
856.2393,97.4416
857.2036,97.5793
858.1678,97.7235
859.1320,97.8731
860.0963,98.028
861.0605,98.1879
862.0247,98.3516
862.9890,98.5167
863.9532,98.6795
864.9174,98.8357
865.8817,98.9813
866.8459,99.114
867.8101,99.2338
868.7744,99.3418
869.7386,99.4386
870.7028,99.5231
871.6671,99.594
872.6313,99.653
873.5955,99.7024
874.5598,99.7536
875.5240,99.8153
876.4882,99.8849
877.4525,99.95
878.4167,99.9931
879.3809,100.002
880.3452,99.9758
881.3094,99.9352
882.2736,99.8961
883.2379,99.8697
884.2021,99.8627
885.1663,99.8742
886.1306,99.9009
887.0948,99.9411
888.0590,99.993
889.0233,100.051
889.9875,100.101
890.9517,100.124
891.9160,100.104
892.8802,100.038
893.8444,99.9343
894.8087,99.8122
895.7729,99.6902
896.7371,99.5776
897.7014,99.4714
898.6656,99.3601
899.6298,99.2309
900.5941,99.0754
901.5583,98.8928
902.5225,98.688
903.4868,98.4687
904.4510,98.2428
905.4152,98.0171
906.3795,97.7975
907.3437,97.589
908.3079,97.3965
909.2722,97.225
910.2364,97.081
911.2006,96.9726
912.1649,96.9088
913.1291,96.8971
914.0933,96.9403
915.0576,97.0344
916.0218,97.1697
916.9860,97.3346
917.9503,97.5198
918.9145,97.7204
919.8787,97.9356
920.8430,98.1645
921.8072,98.4028
922.7714,98.6419
923.7357,98.8712
924.6999,99.0813
925.6641,99.2669
926.6284,99.4274
927.5926,99.5654
928.5568,99.6842
929.5211,99.7865
930.4853,99.8737
931.4495,99.9452
932.4138,99.9993
933.3780,100.034
934.3422,100.047
935.3065,100.04
936.2707,100.019
937.2349,99.9911
938.1992,99.9617
939.1634,99.9521
940.1276,99.9827
941.0919,100.01
942.0561,100.032
943.0203,100.051
943.9846,100.071
944.9488,100.092
945.9130,100.109
946.8773,100.113
947.8415,100.095
948.8057,100.058
949.7700,100.011
950.7342,99.9642
951.6984,99.9295
952.6627,99.9081
953.6269,99.8914
954.5911,99.866
955.5554,99.8216
956.5196,99.757
957.4838,99.6797
958.4481,99.6008
959.4123,99.528
960.3765,99.4623
961.3408,99.3999
962.3050,99.3364
963.2692,99.2719
964.2335,99.2112
965.1977,99.1613
966.1619,99.1269
967.1262,99.1078
968.0904,99.0994
969.0546,99.0954
970.0189,99.0906
970.9831,99.0829
971.9473,99.0727
972.9116,99.0619
973.8758,99.052
974.8400,99.0425
975.8043,99.0308
976.7685,99.0121
977.7327,98.9813
978.6970,98.9354
979.6612,98.8743
980.6254,98.8017
981.5897,98.7226
982.5539,98.6413
983.5181,98.5595
984.4824,98.4762
985.4466,98.3888
986.4108,98.2954
987.3751,98.1955
988.3393,98.0907
989.3035,97.9829
990.2678,97.8733
991.2320,97.7613
992.1962,97.6445
993.1605,97.5186
994.1247,97.3789
995.0889,97.2213
996.0532,97.0434
997.0174,96.8462
997.9816,96.6329
998.9459,96.408
999.9101,96.1742
1000.8743,95.9301
1001.8386,95.6702
1002.8028,95.3874
1003.7670,95.0778
1004.7313,94.7433
1005.6955,94.3927
1006.6597,94.0375
1007.6240,93.6868
1008.5882,93.3435
1009.5524,93.0045
1010.5167,92.6641
1011.4809,92.3186
1012.4451,91.9695
1013.4094,91.6237
1014.3736,91.2908
1015.3378,90.9799
1016.3021,90.6959
1017.2663,90.4377
1018.2305,90.1987
1019.1948,89.9714
1020.1590,89.7538
1021.1232,89.5546
1022.0875,89.3927
1023.0517,89.288
1024.0160,89.2483
1024.9802,89.2597
1025.9445,89.2879
1026.9087,89.2941
1027.8729,89.2582
1028.8372,89.1956
1029.8014,89.1561
1030.7656,89.2046
1031.7299,89.3951
1032.6941,89.7517
1033.6583,90.2631
1034.6226,90.8907
1035.5868,91.5847
1036.5510,92.2996
1037.5153,93.0049
1038.4795,93.6861
1039.4437,94.3401
1040.4080,94.968
1041.3722,95.5692
1042.3364,96.1379
1043.3007,96.6647
1044.2649,97.1399
1045.2291,97.5581
1046.1934,97.9206
1047.1576,98.2336
1048.1218,98.5038
1049.0861,98.7346
1050.0503,98.9258
1051.0145,99.0775
1051.9788,99.1946
1052.9430,99.2871
1053.9072,99.3647
1054.8715,99.4281
1055.8357,99.4642
1056.7999,99.4519
1057.7642,99.3777
1058.7284,99.254
1059.6926,99.1239
1060.6569,99.0483
1061.6211,99.0765
1062.5853,99.2176
1063.5496,99.4271
1064.5138,99.6181
1065.4780,99.69
1066.4423,99.5899
1067.4065,99.3295
1068.3707,98.9707
1069.3350,98.5928
1070.2992,98.255
1071.2634,97.9762
1072.2277,97.738
1073.1919,97.5027
1074.1561,97.2336
1075.1204,96.9082
1076.0846,96.5203
1077.0488,96.0755
1078.0131,95.5839
1078.9773,95.0562
1079.9415,94.5023
1080.9058,93.9306
1081.8700,93.3496
1082.8342,92.7667
1083.7985,92.1885
1084.7627,91.618
1085.7269,91.0541
1086.6912,90.4915
1087.6554,89.9249
1088.6196,89.3543
1089.5839,88.7891
1090.5481,88.2473
1091.5123,87.7492
1092.4766,87.3096
1093.4408,86.9323
1094.4050,86.6091
1095.3693,86.323
1096.3335,86.053
1097.2977,85.7772
1098.2620,85.4755
1099.2262,85.1308
1100.1904,84.7311
1101.1547,84.2717
1102.1189,83.7556
1103.0831,83.192
1104.0474,82.5935
1105.0116,81.9744
1105.9758,81.3509
1106.9401,80.7419
1107.9043,80.1702
1108.8685,79.6614
1109.8328,79.2404
1110.7970,78.9299
1111.7612,78.7479
1112.7255,78.7075
1113.6897,78.816
1114.6539,79.0743
1115.6182,79.4756
1116.5824,80.0061
1117.5466,80.6476
1118.5109,81.3813
1119.4751,82.191
1120.4393,83.0641
1121.4036,83.9916
1122.3678,84.9656
1123.3320,85.9785
1124.2963,87.0218
1125.2605,88.0865
1126.2247,89.1634
1127.1890,90.2443
1128.1532,91.3211
1129.1174,92.3859
1130.0817,93.4297
1131.0459,94.4412
1132.0101,95.4061
1132.9744,96.3072
1133.9386,97.1266
1134.9028,97.8479
1135.8671,98.459
1136.8313,98.9541
1137.7955,99.3336
1138.7598,99.6031
1139.7240,99.7721
1140.6882,99.8527
1141.6525,99.8583
1142.6167,99.8032
1143.5809,99.7022
1144.5452,99.5692
1145.5094,99.4176
1146.4736,99.2589
1147.4379,99.1033
1148.4021,98.9592
1149.3663,98.8347
1150.3306,98.7375
1151.2948,98.6756
1152.2590,98.6561
1153.2233,98.6835
1154.1875,98.7576
1155.1517,98.8733
1156.1160,99.0209
1157.0802,99.1891
1158.0444,99.3542
1159.0087,99.4261
1159.9729,99.4955
1160.9371,99.5596
1161.9014,99.615
1162.8656,99.6566
1163.8298,99.6776
1164.7941,99.6707
1165.7583,99.6307
1166.7225,99.5565
1167.6868,99.4521
1168.6510,99.3246
1169.6152,99.1815
1170.5795,99.0267
1171.5437,98.8592
1172.5079,98.6735
1173.4722,98.462
1174.4364,98.2182
1175.4006,97.9384
1176.3649,97.6216
1177.3291,97.2696
1178.2933,96.8858
1179.2576,96.4761
1180.2218,96.0486
1181.1860,95.6128
1182.1503,95.178
1183.1145,94.7516
1184.0787,94.3377
1185.0430,93.9374
1186.0072,93.5495
1186.9714,93.1716
1187.9357,92.8005
1188.8999,92.4333
1189.8641,92.0672
1190.8284,91.7005
1191.7926,91.3318
1192.7568,90.9592
1193.7211,90.5794
1194.6853,90.1883
1195.6495,89.7817
1196.6138,89.3572
1197.5780,88.9149
1198.5422,88.4574
1199.5065,87.9441
1200.4707,87.4752
1201.4349,87.0053
1202.3992,86.5401
1203.3634,86.0863
1204.3276,85.6519
1205.2919,85.2453
1206.2561,84.874
1207.2203,84.5444
1208.1846,84.2613
1209.1488,84.0289
1210.1130,83.8512
1211.0773,83.7321
1212.0415,83.6756
1213.0057,83.6846
1213.9700,83.7606
1214.9342,83.9028
1215.8984,84.1081
1216.8627,84.3706
1217.8269,84.683
1218.7911,85.0376
1219.7554,85.4266
1220.7196,85.8421
1221.6838,86.2747
1222.6481,86.7131
1223.6123,87.1446
1224.5765,87.5566
1225.5408,87.9385
1226.5050,88.2832
1227.4692,88.5869
1228.4335,88.8487
1229.3977,89.0698
1230.3619,89.2523
1231.3262,89.3985
1232.2904,89.5106
1233.2546,89.5919
1234.2189,89.6493
1235.1831,89.6955
1236.1473,89.749
1237.1116,89.8285
1238.0758,89.9448
1239.0400,90.0946
1240.0043,90.2613
1240.9685,90.4236
1241.9327,90.5678
1242.8970,90.6958
1243.8612,90.8241
1244.8254,90.9727
1245.7897,91.1525
1246.7539,91.3578
1247.7181,91.5695
1248.6824,91.7631
1249.6466,91.9193
1250.6108,92.0292
1251.5751,92.0929
1252.5393,92.1161
1253.5035,92.1052
1254.4678,92.0657
1255.4320,92.0023
1256.3962,91.9186
1257.3605,91.8172
1258.3247,91.6986
1259.2889,91.5621
1260.2532,91.4075
1261.2174,91.2372
1262.1816,91.0563
1263.1459,90.8724
1264.1101,90.6934
1265.0743,90.5265
1266.0386,90.378
1267.0028,90.2532
1267.9670,90.1573
1268.9313,90.0947
1269.8955,90.0683
1270.8597,90.0786
1271.8240,90.1233
1272.7882,90.1978
1273.7524,90.2961
1274.7167,90.4127
1275.6809,90.5433
1276.6451,90.6845
1277.6094,90.8333
1278.5736,90.9865
1279.5378,91.1408
1280.5021,91.2925
1281.4663,91.4387
1282.4305,91.5773
1283.3948,91.7073
1284.3590,91.8285
1285.3232,91.9404
1286.2875,92.0414
1287.2517,92.1292
1288.2159,92.2005
1289.1802,92.2532
1290.1444,92.2874
1291.1086,92.3051
1292.0729,92.3094
1293.0371,92.3031
1294.0013,92.2875
1294.9656,92.2626
1295.9298,92.227
1296.8940,92.1796
1297.8583,92.1193
1298.8225,92.0462
1299.7867,91.962
1300.7510,91.8694
1301.7152,91.7733
1302.6794,91.6782
1303.6437,91.5877
1304.6079,91.5029
1305.5721,91.4228
1306.5364,91.3447
1307.5006,91.2666
1308.4648,91.1876
1309.4291,91.1085
1310.3933,91.0312
1311.3575,90.9572
1312.3218,90.8867
1313.2860,90.8188
1314.2502,90.7521
1315.2145,90.6856
1316.1787,90.619
1317.1429,90.5523
1318.1072,90.4862
1319.0714,90.4214
1320.0356,90.3594
1320.9999,90.3028
1321.9641,90.2547
1322.9283,90.2186
1323.8926,90.1984
1324.8568,90.1984
1325.8210,90.2235
1326.7853,90.2787
1327.7495,90.3682
1328.7137,90.4944
1329.6780,90.6574
1330.6422,90.8537
1331.6064,91.0761
1332.5707,91.3141
1333.5349,91.5586
1334.4991,91.8055
1335.4634,92.0589
1336.4276,92.3295
1337.3918,92.627
1338.3561,92.9488
1339.3203,93.2753
1340.2845,93.5815
1341.2488,93.8545
1342.2130,94.0971
1343.1772,94.3189
1344.1415,94.528
1345.1057,94.7274
1346.0699,94.9149
1347.0342,95.0854
1347.9984,95.2345
1348.9626,95.3616
1349.9269,95.4693
1350.8911,95.5619
1351.8553,95.644
1352.8196,95.7202
1353.7838,95.7937
1354.7480,95.8648
1355.7123,95.9286
1356.6765,95.9778
1357.6407,96.0074
1358.6050,96.0193
1359.5692,96.0231
1360.5334,96.031
1361.4977,96.0471
1362.4619,96.0643
1363.4261,96.0739
1364.3904,96.076
1365.3546,96.0783
1366.3188,96.0896
1367.2831,96.1166
1368.2473,96.162
1369.2115,96.2257
1370.1758,96.3089
1371.1400,96.4199
1372.1042,96.5743
1373.0685,96.7837
1374.0327,97.0407
1374.9969,97.3159
1375.9612,97.5776
1376.9254,97.8141
1377.8896,98.0337
1378.8539,98.2504
1379.8181,98.469
1380.7823,98.679
1381.7466,98.8608
1382.7108,98.9995
1383.6750,99.0945
1384.6393,99.1608
1385.6035,99.2206
1386.5677,99.293
1387.5320,99.3877
1388.4962,99.5077
1389.4604,99.6549
1390.4247,99.8159
1391.3889,99.9756
1392.3531,100.115
1393.3174,100.208
1394.2816,100.223
1395.2458,100.147
1396.2101,100.01
1397.1743,99.8721
1398.1385,99.7829
1399.1028,99.7525
1400.0670,99.7595
1401.0313,99.7847
1401.9955,99.7948
1402.9597,99.771
1403.9240,99.7012
1404.8882,99.5742
1405.8524,99.3853
1406.8167,99.1395
1407.7809,98.8436
1408.7451,98.4949
1409.7094,98.0821
1410.6736,97.5992
1411.6378,97.0603
1412.6021,96.497
1413.5663,95.9364
1414.5305,95.3801
1415.4948,94.8037
1416.4590,94.1716
1417.4232,93.4646
1418.3875,92.7198
1419.3517,92.0394
1420.3159,91.5132
1421.2802,91.1469
1422.2444,90.8905
1423.2086,90.6978
1424.1729,90.5518
1425.1371,90.4582
1426.1013,90.4329
1427.0656,90.495
1428.0298,90.6625
1428.9940,90.9369
1429.9583,91.2865
1430.9225,91.6497
1431.8867,91.9684
1432.8510,92.2187
1433.8152,92.4123
1434.7794,92.5741
1435.7437,92.7058
1436.7079,92.7702
1437.6721,92.7279
1438.6364,92.5756
1439.6006,92.3244
1440.5648,91.9756
1441.5291,91.5301
1442.4933,91.0024
1443.4575,90.4207
1444.4218,89.8142
1445.3860,89.1996
1446.3502,88.5829
1447.3145,87.9746
1448.2787,87.4045
1449.2429,86.9115
1450.2072,86.5153
1451.1714,86.2014
1452.1356,85.9363
1453.0999,85.6951
1454.0641,85.4791
1455.0283,85.3114
1455.9926,85.1943
1456.9568,85.0648
1457.9210,84.893
1458.8853,84.7606
1459.8495,84.7125
1460.8137,84.7234
1461.7780,84.7837
1462.7422,84.943
1463.7064,85.2877
1464.6707,85.861
1465.6349,86.5878
1466.5991,87.3242
1467.5634,87.9784
1468.5276,88.5525
1469.4918,89.1171
1470.4561,89.7812
1471.4203,90.6404
1472.3845,91.6669
1473.3488,92.6478
1474.3130,93.3763
1475.2772,93.8507
1476.2415,94.1725
1477.2057,94.4072
1478.1699,94.5701
1479.1342,94.6564
1480.0984,94.6605
1481.0626,94.5824
1482.0269,94.4295
1482.9911,94.2156
1483.9553,93.9565
1484.9196,93.666
1485.8838,93.3516
1486.8480,93.0073
1487.8123,92.6068
1488.7765,92.1235
1489.7407,91.5929
1490.7050,91.1076
1491.6692,90.715
1492.6334,90.3873
1493.5977,90.0739
1494.5619,89.7416
1495.5261,89.38
1496.4904,88.9945
1497.4546,88.6054
1498.4188,88.2506
1499.3831,87.9587
1500.3473,87.7176
1501.3115,87.4887
1502.2758,87.2386
1503.2400,86.9584
1504.2042,86.6625
1505.1685,86.3582
1506.1327,85.9684
1507.0969,85.3598
1508.0612,84.6581
1509.0254,84.1356
1509.9896,83.8116
1510.9539,83.581
1511.9181,83.3924
1512.8823,83.2775
1513.8466,83.3225
1514.8108,83.6149
1515.7750,84.1767
1516.7393,84.942
1517.7035,85.8265
1518.6677,86.8322
1519.6320,88.0577
1520.5962,89.5657
1521.5604,91.2293
1522.5247,92.7815
1523.4889,94.0439
1524.4531,95.0345
1525.4174,95.8686
1526.3816,96.6234
1527.3458,97.2921
1528.3101,97.8305
1529.2743,98.2203
1530.2385,98.4952
1531.2028,98.7244
1532.1670,98.9679
1533.1312,99.2246
1534.0955,99.432
1535.0597,99.5336
1536.0239,99.5269
1536.9882,99.4623
1537.9524,99.4361
1538.9166,99.5718
1539.8809,99.9031
1540.8451,100.205
1541.8093,100.242
1542.7736,100.124
1543.7378,100.015
1544.7020,99.9492
1545.6663,99.9066
1546.6305,99.8671
1547.5947,99.8219
1548.5590,99.7657
1549.5232,99.7019
1550.4874,99.6305
1551.4517,99.5493
1552.4159,99.4605
1553.3801,99.3531
1554.3444,99.2276
1555.3086,99.1018
1556.2728,99.0184
1557.2371,99.0067
1558.2013,98.972
1559.1655,98.7869
1560.1298,98.5809
1561.0940,98.4886
1562.0582,98.4654
1563.0225,98.4294
1563.9867,98.3401
1564.9509,98.1977
1565.9152,98.0219
1566.8794,97.8304
1567.8436,97.6221
1568.8079,97.3821
1569.7721,97.1129
1570.7363,96.8426
1571.7006,96.5903
1572.6648,96.3457
1573.6290,96.0818
1574.5933,95.7672
1575.5575,95.3771
1576.5217,94.927
1577.4860,94.4903
1578.4502,94.1218
1579.4144,93.7992
1580.3787,93.4662
1581.3429,93.0871
1582.3071,92.6623
1583.2714,92.218
1584.2356,91.784
1585.1998,91.3753
1586.1641,90.9894
1587.1283,90.6194
1588.0925,90.2659
1589.0568,89.9363
1590.0210,89.6379
1590.9852,89.3713
1591.9495,89.1319
1592.9137,88.9141
1593.8779,88.7149
1594.8422,88.5324
1595.8064,88.3646
1596.7706,88.2096
1597.7349,88.067
1598.6991,87.9385
1599.6633,87.8263
1600.6276,87.7332
1601.5918,87.662
1602.5560,87.6166
1603.5203,87.5998
1604.4845,87.6114
1605.4487,87.6492
1606.4130,87.7122
1607.3772,87.8038
1608.3414,87.9279
1609.3057,88.0801
1610.2699,88.2435
1611.2341,88.3969
1612.1984,88.5314
1613.1626,88.6675
1614.1268,88.8624
1615.0911,89.1871
1616.0553,89.6551
1617.0195,90.1705
1617.9838,90.613
1618.9480,90.9501
1619.9122,91.2242
1620.8765,91.4962
1621.8407,91.8114
1622.8049,92.1711
1623.7692,92.5253
1624.7334,92.8169
1625.6976,93.0358
1626.6619,93.2142
1627.6261,93.384
1628.5903,93.5481
1629.5546,93.6838
1630.5188,93.7668
1631.4830,93.7921
1632.4473,93.7848
1633.4115,93.7994
1634.3757,93.8939
1635.3400,94.0621
1636.3042,94.212
1637.2684,94.2864
1638.2327,94.3139
1639.1969,94.3237
1640.1611,94.3146
1641.1254,94.2763
1642.0896,94.2069
1643.0538,94.1209
1644.0181,94.0498
1644.9823,94.0244
1645.9465,94.0348
1646.9108,94.0221
1647.8750,93.9477
1648.8392,93.8237
1649.8035,93.6748
1650.7677,93.5358
1651.7319,93.4561
1652.6962,93.4388
1653.6604,93.4014
1654.6246,93.3382
1655.5889,93.3183
1656.5531,93.333
1657.5173,93.3367
1658.4816,93.3083
1659.4458,93.2579
1660.4100,93.2086
1661.3743,93.1736
1662.3385,93.1448
1663.3027,93.1088
1664.2670,93.0622
1665.2312,93.0085
1666.1954,92.9561
1667.1597,92.9208
1668.1239,92.9179
1669.0881,92.9411
1670.0524,92.9588
1671.0166,92.9467
1671.9808,92.9081
1672.9451,92.8583
1673.9093,92.8118
1674.8735,92.7801
1675.8378,92.769
1676.8020,92.7749
1677.7662,92.7841
1678.7305,92.7777
1679.6947,92.7445
1680.6589,92.695
1681.6232,92.6636
1682.5874,92.6836
1683.5516,92.7351
1684.5159,92.7595
1685.4801,92.7533
1686.4443,92.7497
1687.4086,92.7533
1688.3728,92.7478
1689.3370,92.7195
1690.3013,92.6639
1691.2655,92.5841
1692.2297,92.4892
1693.1940,92.3937
1694.1582,92.3153
1695.1224,92.2674
1696.0867,92.2474
1697.0509,92.2311
1698.0151,92.1864
1698.9794,92.1056
1699.9436,92.0196
1700.9078,91.9695
1701.8721,91.9686
1702.8363,91.9983
1703.8005,92.0302
1704.7648,92.0428
1705.7290,92.0288
1706.6932,91.9948
1707.6575,91.956
1708.6217,91.9258
1709.5859,91.9072
1710.5502,91.8951
1711.5144,91.8837
1712.4786,91.8732
1713.4429,91.8764
1714.4071,91.9194
1715.3713,92.0276
1716.3356,92.1867
1717.2998,92.3345
1718.2640,92.4377
1719.2283,92.5222
1720.1925,92.6151
1721.1567,92.7204
1722.1210,92.8325
1723.0852,92.9463
1724.0494,93.0588
1725.0137,93.1692
1725.9779,93.2797
1726.9421,93.3921
1727.9064,93.5036
1728.8706,93.6083
1729.8348,93.7058
1730.7991,93.8141
1731.7633,93.9683
1732.7275,94.1921
1733.6918,94.4579
1734.6560,94.7085
1735.6202,94.9188
1736.5845,95.0999
1737.5487,95.2729
1738.5129,95.4575
1739.4772,95.6653
1740.4414,95.8903
1741.4056,96.1115
1742.3699,96.311
1743.3341,96.4863
1744.2983,96.6449
1745.2626,96.7946
1746.2268,96.9416
1747.1910,97.0923
1748.1553,97.2509
1749.1195,97.411
1750.0837,97.5573
1751.0480,97.6811
1752.0122,97.7876
1752.9764,97.8866
1753.9407,97.9852
1754.9049,98.0869
1755.8691,98.1902
1756.8334,98.2878
1757.7976,98.3717
1758.7618,98.4414
1759.7261,98.5055
1760.6903,98.5739
1761.6545,98.6477
1762.6188,98.7187
1763.5830,98.7778
1764.5472,98.8228
1765.5115,98.8584
1766.4757,98.8933
1767.4399,98.9369
1768.4042,98.9975
1769.3684,99.0803
1770.3326,99.1839
1771.2969,99.2941
1772.2611,99.387
1773.2253,99.4486
1774.1896,99.4856
1775.1538,99.5116
1776.1180,99.5352
1777.0823,99.5613
1778.0465,99.5938
1779.0107,99.633
1779.9750,99.673
1780.9392,99.7051
1781.9034,99.7264
1782.8677,99.7419
1783.8319,99.759
1784.7961,99.7805
1785.7604,99.8021
1786.7246,99.816
1787.6888,99.8182
1788.6531,99.8139
1789.6173,99.8183
1790.5815,99.8471
1791.5458,99.8988
1792.5100,99.9503
1793.4742,99.9812
1794.4385,99.9914
1795.4027,99.9895
1796.3669,99.9823
1797.3312,99.9756
1798.2954,99.9755
1799.2596,99.9846
1800.2239,99.9987
1801.1881,100.01
1802.1523,100.014
1803.1166,100.011
1804.0808,100.004
1805.0450,99.9938
1806.0093,99.9848
1806.9735,99.9808
1807.9377,99.986
1808.9020,100.001
1809.8662,100.022
1810.8304,100.04
1811.7947,100.047
1812.7589,100.042
1813.7231,100.031
1814.6874,100.019
1815.6516,100.011
1816.6158,100.007
1817.5801,100.006
1818.5443,100.002
1819.5085,99.9918
1820.4728,99.9751
1821.4370,99.9558
1822.4012,99.9396
1823.3655,99.9301
1824.3297,99.9268
1825.2939,99.927
1826.2582,99.929
1827.2224,99.9434
1828.1866,99.9713
1829.1509,99.9972
1830.1151,100.014
1831.0793,100.019
1832.0436,100.016
1833.0078,100.011
1833.9720,100.009
1834.9363,100.009
1835.9005,100.013
1836.8647,100.017
1837.8290,100.015
1838.7932,100.004
1839.7574,99.9854
1840.7217,99.9666
1841.6859,99.9593
1842.6501,99.9732
1843.6144,100.006
1844.5786,100.04
1845.5428,100.063
1846.5071,100.072
1847.4713,100.072
1848.4355,100.068
1849.3998,100.061
1850.3640,100.055
1851.3282,100.051
1852.2925,100.05
1853.2567,100.05
1854.2209,100.05
1855.1852,100.049
1856.1494,100.047
1857.1136,100.043
1858.0779,100.039
1859.0421,100.035
1860.0063,100.031
1860.9706,100.029
1861.9348,100.028
1862.8990,100.029
1863.8633,100.033
1864.8275,100.042
1865.7917,100.061
1866.7560,100.09
1867.7202,100.122
1868.6844,100.14
1869.6487,100.138
1870.6129,100.124
1871.5771,100.108
1872.5414,100.097
1873.5056,100.09
1874.4698,100.087
1875.4341,100.086
1876.3983,100.085
1877.3625,100.083
1878.3268,100.081
1879.2910,100.08
1880.2552,100.083
1881.2195,100.09
1882.1837,100.097
1883.1479,100.101
1884.1122,100.1
1885.0764,100.095
1886.0406,100.091
1887.0049,100.093
1887.9691,100.104
1888.9333,100.121
1889.8976,100.137
1890.8618,100.148
1891.8260,100.154
1892.7903,100.157
1893.7545,100.16
1894.7188,100.164
1895.6830,100.167
1896.6472,100.166
1897.6115,100.161
1898.5757,100.154
1899.5399,100.15
1900.5042,100.149
1901.4684,100.154
1902.4326,100.161
1903.3969,100.167
1904.3611,100.172
1905.3253,100.175
1906.2896,100.18
1907.2538,100.187
1908.2180,100.198
1909.1823,100.209
1910.1465,100.216
1911.1107,100.215
1912.0750,100.208
1913.0392,100.198
1914.0034,100.189
1914.9677,100.186
1915.9319,100.189
1916.8961,100.198
1917.8604,100.207
1918.8246,100.215
1919.7888,100.222
1920.7531,100.231
1921.7173,100.243
1922.6815,100.255
1923.6458,100.259
1924.6100,100.254
1925.5742,100.24
1926.5385,100.224
1927.5027,100.21
1928.4669,100.201
1929.4312,100.198
1930.3954,100.198
1931.3596,100.198
1932.3239,100.196
1933.2881,100.192
1934.2523,100.187
1935.2166,100.182
1936.1808,100.175
1937.1450,100.168
1938.1093,100.161
1939.0735,100.157
1940.0377,100.161
1941.0020,100.172
1941.9662,100.188
1942.9304,100.2
1943.8947,100.203
1944.8589,100.199
1945.8231,100.189
1946.7874,100.177
1947.7516,100.167
1948.7158,100.158
1949.6801,100.151
1950.6443,100.146
1951.6085,100.142
1952.5728,100.14
1953.5370,100.139
1954.5012,100.138
1955.4655,100.136
1956.4297,100.134
1957.3939,100.132
1958.3582,100.131
1959.3224,100.132
1960.2866,100.134
1961.2509,100.136
1962.2151,100.137
1963.1793,100.138
1964.1436,100.141
1965.1078,100.147
1966.0720,100.154
1967.0363,100.159
1968.0005,100.158
1968.9647,100.153
1969.9290,100.146
1970.8932,100.14
1971.8574,100.139
1972.8217,100.14
1973.7859,100.142
1974.7501,100.143
1975.7144,100.141
1976.6786,100.137
1977.6428,100.133
1978.6071,100.13
1979.5713,100.127
1980.5355,100.125
1981.4998,100.123
1982.4640,100.122
1983.4282,100.124
1984.3925,100.128
1985.3567,100.135
1986.3209,100.143
1987.2852,100.15
1988.2494,100.154
1989.2136,100.156
1990.1779,100.157
1991.1421,100.156
1992.1063,100.153
1993.0706,100.148
1994.0348,100.142
1994.9990,100.137
1995.9633,100.134
1996.9275,100.134
1997.8917,100.135
1998.8560,100.137
1999.8202,100.136
2000.7844,100.133
2001.7487,100.127
2002.7129,100.121
2003.6771,100.116
2004.6414,100.114
2005.6056,100.113
2006.5698,100.114
2007.5341,100.113
2008.4983,100.11
2009.4625,100.104
2010.4268,100.095
2011.3910,100.087
2012.3552,100.08
2013.3195,100.08
2014.2837,100.086
2015.2479,100.096
2016.2122,100.106
2017.1764,100.112
2018.1406,100.111
2019.1049,100.104
2020.0691,100.093
2021.0333,100.083
2021.9976,100.076
2022.9618,100.074
2023.9260,100.075
2024.8903,100.076
2025.8545,100.076
2026.8187,100.072
2027.7830,100.065
2028.7472,100.057
2029.7114,100.051
2030.6757,100.047
2031.6399,100.047
2032.6041,100.049
2033.5684,100.052
2034.5326,100.055
2035.4968,100.057
2036.4611,100.059
2037.4253,100.06
2038.3895,100.06
2039.3538,100.06
2040.3180,100.057
2041.2822,100.053
2042.2465,100.047
2043.2107,100.043
2044.1749,100.039
2045.1392,100.037
2046.1034,100.036
2047.0676,100.034
2048.0320,100.03
2048.9961,100.024
2049.9604,100.018
2050.9246,100.013
2051.8889,100.009
2052.8530,100.006
2053.8174,100.004
2054.7815,100.001
2055.7458,99.9979
2056.7100,99.996
2057.6743,99.9958
2058.6384,99.9979
2059.6028,100.002
2060.5669,100.007
2061.5313,100.013
2062.4954,100.018
2063.4597,100.022
2064.4238,100.022
2065.3882,100.02
2066.3523,100.016
2067.3167,100.012
2068.2808,100.008
2069.2451,100.006
2070.2092,100.005
2071.1736,100.005
2072.1377,100.006
2073.1021,100.007
2074.0662,100.009
2075.0305,100.012
2075.9946,100.015
2076.9590,100.017
2077.9231,100.015
2078.8875,100.009
2079.8516,100.001
2080.8159,99.9934
2081.7800,99.9895
2082.7444,99.9914
2083.7085,99.9988
2084.6729,100.01
2085.6370,100.02
2086.6013,100.027
2087.5654,100.029
2088.5298,100.027
2089.4939,100.024
2090.4583,100.02
2091.4224,100.019
2092.3867,100.019
2093.3508,100.019
2094.3152,100.018
2095.2793,100.016
2096.2437,100.011
2097.2078,100.007
2098.1721,100.005
2099.1362,100.004
2100.1006,100.006
2101.0647,100.01
2102.0291,100.016
2102.9932,100.022
2103.9575,100.026
2104.9216,100.027
2105.8860,100.025
2106.8501,100.021
2107.8145,100.017
2108.7786,100.016
2109.7429,100.017
2110.7070,100.02
2111.6714,100.021
2112.6355,100.02
2113.5999,100.017
2114.5640,100.011
2115.5283,100.006
2116.4924,100.002
2117.4568,99.9989
2118.4209,99.9971
2119.3853,99.9951
2120.3494,99.9925
2121.3137,99.9894
2122.2778,99.9866
2123.2422,99.985
2124.2063,99.9847
2125.1707,99.9853
2126.1348,99.9858
2127.0991,99.9853
2128.0632,99.9831
2129.0276,99.9793
2129.9917,99.975
2130.9561,99.9714
2131.9202,99.9699
2132.8845,99.9714
2133.8486,99.9759
2134.8130,99.9824
2135.7771,99.9885
2136.7415,99.9918
2137.7056,99.9905
2138.6699,99.9844
2139.6340,99.9748
2140.5984,99.9641
2141.5625,99.9546
2142.5269,99.9475
2143.4910,99.943
2144.4553,99.9407
2145.4194,99.94
2146.3838,99.9408
2147.3479,99.943
2148.3123,99.946
2149.2764,99.9492
2150.2407,99.9516
2151.2048,99.9524
2152.1692,99.9515
2153.1333,99.9492
2154.0977,99.946
2155.0618,99.9424
2156.0261,99.9392
2156.9902,99.937
2157.9546,99.9364
2158.9187,99.9376
2159.8831,99.9404
2160.8472,99.9441
2161.8115,99.9479
2162.7756,99.951
2163.7400,99.9532
2164.7041,99.9545
2165.6685,99.9551
2166.6326,99.9553
2167.5969,99.9552
2168.5610,99.955
2169.5254,99.9549
2170.4895,99.955
2171.4539,99.9552
2172.4180,99.9556
2173.3823,99.9557
2174.3464,99.9554
2175.3108,99.9544
2176.2749,99.953
2177.2393,99.9519
2178.2034,99.9518
2179.1677,99.9532
2180.1318,99.956
2181.0962,99.9595
2182.0603,99.9631
2183.0247,99.9657
2183.9888,99.9666
2184.9531,99.9654
2185.9172,99.962
2186.8816,99.9566
2187.8457,99.9506
2188.8101,99.9457
2189.7742,99.9439
2190.7385,99.946
2191.7026,99.9513
2192.6670,99.9578
2193.6311,99.9628
2194.5955,99.9645
2195.5596,99.9626
2196.5239,99.9583
2197.4880,99.9532
2198.4524,99.9487
2199.4165,99.9454
2200.3809,99.9432
2201.3450,99.9418
2202.3093,99.9407
2203.2734,99.9393
2204.2378,99.9369
2205.2019,99.9329
2206.1663,99.9277
2207.1304,99.9222
2208.0947,99.9181
2209.0588,99.9165
2210.0232,99.9174
2210.9873,99.9192
2211.9517,99.9197
2212.9158,99.917
2213.8801,99.9108
2214.8442,99.9027
2215.8086,99.8951
2216.7727,99.8905
2217.7371,99.8899
2218.7012,99.8924
2219.6655,99.8959
2220.6296,99.8977
2221.5940,99.8957
2222.5581,99.8895
2223.5225,99.8803
2224.4866,99.8703
2225.4509,99.8619
2226.4150,99.8566
2227.3794,99.8543
2228.3435,99.8544
2229.3079,99.8556
2230.2720,99.857
2231.2363,99.8584
2232.2004,99.8601
2233.1648,99.8626
2234.1289,99.8656
2235.0933,99.8683
2236.0574,99.8696
2237.0217,99.8687
2237.9858,99.8653
2238.9502,99.8599
2239.9143,99.8535
2240.8787,99.8477
2241.8428,99.8437
2242.8071,99.8424
2243.7712,99.8438
2244.7356,99.8472
2245.6997,99.8512
2246.6641,99.8539
2247.6282,99.8541
2248.5925,99.8515
2249.5566,99.8463
2250.5210,99.8394
2251.4851,99.8318
2252.4495,99.8244
2253.4136,99.8178
2254.3779,99.8121
2255.3420,99.8077
2256.3064,99.8044
2257.2705,99.8021
2258.2349,99.8005
2259.1990,99.7996
2260.1633,99.7992
2261.1274,99.7995
2262.0918,99.8003
2263.0559,99.8011
2264.0203,99.8013
2264.9844,99.8001
2265.9487,99.7971
2266.9128,99.7923
2267.8772,99.7858
2268.8413,99.7782
2269.8057,99.7696
2270.7698,99.7607
2271.7341,99.7522
2272.6982,99.7452
2273.6626,99.7408
2274.6267,99.7395
2275.5911,99.7405
2276.5552,99.7418
2277.5195,99.741
2278.4836,99.736
2279.4480,99.7265
2280.4121,99.7135
2281.3765,99.6992
2282.3406,99.685
2283.3049,99.6715
2284.2690,99.6583
2285.2334,99.6442
2286.1975,99.6284
2287.1619,99.6105
2288.1260,99.591
2289.0903,99.5702
2290.0544,99.5489
2291.0188,99.527
2291.9829,99.5043
2292.9473,99.4609
2293.9114,99.4139
2294.8757,99.3633
2295.8398,99.3082
2296.8042,99.2476
2297.7683,99.1814
2298.7327,99.1094
2299.6968,99.0314
2300.6611,98.9467
2301.6252,98.8546
2302.5896,98.755
2303.5537,98.65
2304.5181,98.5432
2305.4822,98.439
2306.4465,98.3398
2307.4106,98.2445
2308.3750,98.1489
2309.3391,98.0486
2310.3035,97.9419
2311.2676,97.8321
2312.2319,97.7247
2313.1960,97.6232
2314.1604,97.5256
2315.1245,97.4249
2316.0889,97.313
2317.0530,97.1867
2318.0173,97.0506
2318.9814,96.9184
2319.9458,96.8097
2320.9099,96.7451
2321.8743,96.7391
2322.8384,96.7936
2323.8027,96.8948
2324.7668,97.0155
2325.7312,97.1245
2326.6953,97.1966
2327.6597,97.2221
2328.6238,97.2098
2329.5881,97.183
2330.5522,97.1686
2331.5166,97.1836
2332.4807,97.2277
2333.4451,97.2866
2334.4092,97.3435
2335.3735,97.3896
2336.3376,97.4277
2337.3020,97.4674
2338.2661,97.5185
2339.2305,97.5846
2340.1946,97.6569
2341.1589,97.7031
2342.1230,97.6628
2343.0874,97.4863
2344.0515,97.2165
2345.0159,96.99
2345.9800,96.9018
2346.9443,96.9217
2347.9084,96.9497
2348.8728,96.9061
2349.8369,96.7809
2350.8013,96.6441
2351.7654,96.62
2352.7297,96.8238
2353.6938,97.2757
2354.6582,97.8714
2355.6223,98.4722
2356.5867,99.0088
2357.5508,99.469
2358.5151,99.8285
2359.4792,100.029
2360.4436,100.037
2361.4077,99.8806
2362.3721,99.6068
2363.3362,99.2479
2364.3005,98.875
2365.2646,98.5001
2366.2290,98.1083
2367.1931,97.7275
2368.1575,97.3782
2369.1216,97.0777
2370.0859,96.8443
2371.0500,96.6944
2372.0144,96.637
2372.9785,96.6707
2373.9429,96.7865
2374.9070,96.9713
2375.8713,97.2114
2376.8354,97.4927
2377.7998,97.8009
2378.7639,98.1207
2379.7283,98.4372
2380.6924,98.7365
2381.6567,99.0082
2382.6208,99.2461
2383.5852,99.4487
2384.5493,99.619
2385.5137,99.763
2386.4778,99.8877
2387.4421,99.9632
2388.4063,99.9801
2389.3706,99.9917
2390.3347,99.9989
2391.2991,100.002
2392.2632,100.002
2393.2275,100.001
2394.1917,100.001
2395.1560,100.003
2396.1201,100.008
2397.0845,100.014
2398.0486,100.018
2399.0129,100.019
2399.9771,100.016
2400.9414,100.009
2401.9055,100.002
2402.8699,99.9957
2403.8340,99.9933
2404.7983,99.9948
2405.7625,99.9991
2406.7268,100.005
2407.6909,100.01
2408.6553,100.012
2409.6194,100.012
2410.5837,100.007
2411.5479,100
2412.5122,99.9908
2413.4763,99.9811
2414.4407,99.9726
2415.4048,99.9662
2416.3691,99.9625
2417.3333,99.9617
2418.2976,99.9636
2419.2617,99.9673
2420.2261,99.9713
2421.1902,99.9729
2422.1545,99.9702
2423.1187,99.9626
2424.0830,99.952
2425.0471,99.9417
2426.0115,99.935
2426.9756,99.933
2427.9399,99.9345
2428.9041,99.9364
2429.8684,99.9358
2430.8325,99.9319
2431.7969,99.926
2432.7610,99.921
2433.7253,99.919
2434.6895,99.9204
2435.6538,99.9237
2436.6179,99.9264
2437.5823,99.9268
2438.5464,99.9245
2439.5107,99.9209
2440.4749,99.9181
2441.4392,99.918
2442.4033,99.9209
2443.3677,99.9262
2444.3318,99.9322
2445.2961,99.9371
2446.2603,99.9396
2447.2246,99.9397
2448.1887,99.938
2449.1531,99.9361
2450.1172,99.9349
2451.0815,99.9345
2452.0457,99.934
2453.0100,99.9322
2453.9741,99.9282
2454.9385,99.9221
2455.9026,99.9154
2456.8669,99.9095
2457.8311,99.906
2458.7954,99.9052
2459.7595,99.9064
2460.7239,99.9084
2461.6880,99.9099
2462.6523,99.91
2463.6165,99.9084
2464.5808,99.9057
2465.5449,99.9028
2466.5093,99.901
2467.4734,99.9012
2468.4377,99.9033
2469.4019,99.9058
2470.3662,99.9066
2471.3303,99.9038
2472.2947,99.897
2473.2588,99.8875
2474.2231,99.8786
2475.1873,99.8731
2476.1516,99.8732
2477.1157,99.8784
2478.0801,99.8867
2479.0442,99.8947
2480.0085,99.8999
2480.9727,99.9011
2481.9370,99.8986
2482.9011,99.8944
2483.8655,99.8904
2484.8296,99.8885
2485.7939,99.8891
2486.7581,99.892
2487.7224,99.8959
2488.6865,99.8988
2489.6509,99.8989
2490.6150,99.8951
2491.5793,99.8878
2492.5435,99.8787
2493.5078,99.8707
2494.4719,99.8663
2495.4363,99.8666
2496.4004,99.8698
2497.3647,99.8732
2498.3289,99.8738
2499.2932,99.8707
2500.2573,99.8654
2501.2217,99.8602
2502.1858,99.857
2503.1501,99.8561
2504.1143,99.856
2505.0786,99.8556
2506.0427,99.8548
2507.0071,99.8546
2507.9712,99.8559
2508.9355,99.858
2509.8997,99.8589
2510.8640,99.8565
2511.8281,99.8509
2512.7925,99.8441
2513.7566,99.8398
2514.7209,99.8403
2515.6851,99.8454
2516.6494,99.8529
2517.6135,99.8599
2518.5779,99.8652
2519.5420,99.8691
2520.5063,99.8725
2521.4705,99.8757
2522.4348,99.8775
2523.3989,99.876
2524.3633,99.8703
2525.3274,99.8613
2526.2917,99.8515
2527.2559,99.8439
2528.2202,99.8406
2529.1843,99.8418
2530.1487,99.8468
2531.1128,99.8536
2532.0771,99.8604
2533.0413,99.8654
2534.0056,99.8673
2534.9697,99.8655
2535.9341,99.8608
2536.8982,99.855
2537.8625,99.8506
2538.8267,99.8495
2539.7910,99.8525
2540.7551,99.8588
2541.7195,99.8664
2542.6836,99.8727
2543.6479,99.8757
2544.6121,99.8746
2545.5764,99.8697
2546.5405,99.8628
2547.5049,99.8561
2548.4690,99.8516
2549.4333,99.8502
2550.3975,99.8517
2551.3618,99.8548
2552.3259,99.8577
2553.2903,99.8588
2554.2544,99.8579
2555.2188,99.8555
2556.1829,99.8532
2557.1472,99.852
2558.1113,99.8524
2559.0757,99.8542
2560.0398,99.8564
2561.0042,99.858
2561.9683,99.8585
2562.9326,99.8574
2563.8967,99.8551
2564.8611,99.8521
2565.8252,99.8492
2566.7896,99.8473
2567.7537,99.8471
2568.7180,99.849
2569.6821,99.8524
2570.6465,99.8561
2571.6106,99.8592
2572.5750,99.861
2573.5391,99.8616
2574.5034,99.8614
2575.4675,99.861
2576.4319,99.8603
2577.3960,99.8591
2578.3604,99.8571
2579.3245,99.8543
2580.2888,99.8514
2581.2529,99.849
2582.2173,99.8472
2583.1814,99.8463
2584.1458,99.846
2585.1099,99.8462
2586.0742,99.8471
2587.0383,99.8487
2588.0027,99.8512
2588.9668,99.854
2589.9312,99.8563
2590.8953,99.8571
2591.8596,99.8558
2592.8237,99.8521
2593.7881,99.8467
2594.7522,99.8408
2595.7166,99.8363
2596.6807,99.835
2597.6450,99.8384
2598.6091,99.8464
2599.5735,99.8577
2600.5376,99.8697
2601.5020,99.8797
2602.4661,99.8856
2603.4304,99.8865
2604.3945,99.8828
2605.3589,99.8758
2606.3230,99.8676
2607.2874,99.8605
2608.2515,99.8567
2609.2158,99.8573
2610.1799,99.8617
2611.1443,99.8676
2612.1084,99.8719
2613.0728,99.8724
2614.0369,99.8691
2615.0012,99.8646
2615.9653,99.8626
2616.9297,99.8657
2617.8938,99.8736
2618.8582,99.8832
2619.8223,99.8909
2620.7866,99.8944
2621.7507,99.8938
2622.7151,99.8911
2623.6792,99.8885
2624.6436,99.8868
2625.6077,99.8854
2626.5720,99.8838
2627.5361,99.8818
2628.5005,99.8804
2629.4646,99.8803
2630.4290,99.8813
2631.3931,99.8822
2632.3574,99.8814
2633.3215,99.8783
2634.2859,99.8735
2635.2500,99.8687
2636.2144,99.8658
2637.1785,99.8658
2638.1428,99.8689
2639.1069,99.8747
2640.0713,99.8816
2641.0354,99.8874
2641.9998,99.8898
2642.9639,99.8869
2643.9282,99.8789
2644.8923,99.8681
2645.8567,99.8581
2646.8208,99.8526
2647.7852,99.853
2648.7493,99.8582
2649.7136,99.8654
2650.6777,99.8717
2651.6421,99.8759
2652.6062,99.8786
2653.5706,99.8813
2654.5347,99.8851
2655.4990,99.89
2656.4631,99.8946
2657.4275,99.8976
2658.3916,99.8983
2659.3560,99.8969
2660.3201,99.8947
2661.2844,99.8931
2662.2485,99.8926
2663.2129,99.8932
2664.1770,99.894
2665.1414,99.8943
2666.1055,99.8941
2667.0698,99.8942
2668.0339,99.8953
2668.9983,99.8977
2669.9624,99.9003
2670.9268,99.9018
2671.8909,99.901
2672.8552,99.8982
2673.8193,99.8951
2674.7837,99.8939
2675.7478,99.8954
2676.7122,99.8992
2677.6763,99.9034
2678.6406,99.9064
2679.6047,99.9074
2680.5691,99.9066
2681.5332,99.9045
2682.4976,99.9012
2683.4617,99.8962
2684.4260,99.8895
2685.3901,99.8817
2686.3545,99.8742
2687.3186,99.8688
2688.2830,99.8661
2689.2471,99.8661
2690.2114,99.8676
2691.1755,99.8696
2692.1399,99.8711
2693.1040,99.8717
2694.0684,99.871
2695.0325,99.8691
2695.9968,99.8664
2696.9609,99.8635
2697.9253,99.8613
2698.8894,99.8599
2699.8538,99.859
2700.8179,99.858
2701.7822,99.8567
2702.7463,99.8559
2703.7107,99.8566
2704.6748,99.8595
2705.6392,99.8634
2706.6033,99.8662
2707.5676,99.8652
2708.5317,99.8596
2709.4961,99.8505
2710.4602,99.841
2711.4246,99.8343
2712.3887,99.8318
2713.3530,99.8334
2714.3171,99.8372
2715.2815,99.8413
2716.2456,99.8441
2717.2100,99.8451
2718.1741,99.8447
2719.1384,99.8435
2720.1025,99.8425
2721.0669,99.8422
2722.0310,99.843
2722.9954,99.8439
2723.9595,99.8434
2724.9238,99.8401
2725.8879,99.8336
2726.8523,99.8252
2727.8164,99.8176
2728.7808,99.8131
2729.7449,99.813
2730.7092,99.8167
2731.6733,99.8224
2732.6377,99.8283
2733.6018,99.8333
2734.5662,99.8373
2735.5303,99.8409
2736.4946,99.8444
2737.4587,99.8477
2738.4231,99.8504
2739.3872,99.852
2740.3516,99.8528
2741.3157,99.8537
2742.2800,99.8564
2743.2441,99.8627
2744.2085,99.8727
2745.1726,99.8846
2746.1370,99.8952
2747.1011,99.9009
2748.0654,99.9
2749.0295,99.8942
2749.9939,99.8873
2750.9580,99.8839
2751.9224,99.887
2752.8865,99.8957
2753.8508,99.9065
2754.8149,99.9146
2755.7793,99.9164
2756.7434,99.9117
2757.7078,99.9033
2758.6719,99.8957
2759.6362,99.8931
2760.6003,99.8971
2761.5647,99.9062
2762.5288,99.917
2763.4932,99.9258
2764.4573,99.9306
2765.4216,99.9321
2766.3857,99.9324
2767.3501,99.9338
2768.3142,99.9369
2769.2786,99.94
2770.2427,99.9402
2771.2070,99.9351
2772.1711,99.924
2773.1355,99.9091
2774.0996,99.8939
2775.0640,99.8827
2776.0281,99.8777
2776.9924,99.8795
2777.9565,99.8857
2778.9209,99.8933
2779.8850,99.8992
2780.8494,99.9023
2781.8135,99.903
2782.7778,99.9032
2783.7419,99.9043
2784.7063,99.9067
2785.6704,99.9092
2786.6348,99.9097
2787.5989,99.9061
2788.5632,99.8979
2789.5273,99.8858
2790.4917,99.8723
2791.4558,99.8602
2792.4202,99.8521
2793.3843,99.8492
2794.3486,99.8505
2795.3127,99.8533
2796.2771,99.8536
2797.2412,99.8481
2798.2056,99.8353
2799.1697,99.8168
2800.1340,99.7958
2801.0981,99.7766
2802.0625,99.7628
2803.0266,99.7575
2803.9910,99.7567
2804.9551,99.7577
2805.9194,99.758
2806.8835,99.7555
2807.8479,99.7487
2808.8120,99.7368
2809.7764,99.7176
2810.7405,99.678
2811.7048,99.6367
2812.6689,99.5959
2813.6333,99.5569
2814.5974,99.5185
2815.5618,99.4783
2816.5259,99.4333
2817.4902,99.3822
2818.4543,99.3258
2819.4187,99.266
2820.3828,99.2039
2821.3472,99.1387
2822.3113,99.0676
2823.2756,98.9876
2824.2397,98.8971
2825.2041,98.7963
2826.1682,98.6868
2827.1326,98.5708
2828.0967,98.4504
2829.0610,98.3274
2830.0251,98.2038
2830.9895,98.0818
2831.9536,97.9633
2832.9180,97.8503
2833.8821,97.7446
2834.8464,97.6482
2835.8105,97.5632
2836.7749,97.491
2837.7390,97.4328
2838.7034,97.3894
2839.6675,97.3616
2840.6318,97.3505
2841.5959,97.3566
2842.5603,97.3793
2843.5244,97.4161
2844.4888,97.4638
2845.4529,97.5205
2846.4172,97.587
2847.3813,97.6658
2848.3457,97.7586
2849.3098,97.8636
2850.2742,97.9745
2851.2383,98.0828
2852.2026,98.1812
2853.1667,98.2663
2854.1311,98.3386
2855.0952,98.4012
2856.0596,98.457
2857.0237,98.5076
2857.9880,98.5538
2858.9521,98.5964
2859.9165,98.6362
2860.8806,98.6744
2861.8450,98.7115
2862.8091,98.7477
2863.7734,98.783
2864.7375,98.8177
2865.7019,98.8527
2866.6660,98.8881
2867.6304,98.9225
2868.5945,98.9526
2869.5588,98.9744
2870.5229,98.9844
2871.4873,98.9823
2872.4514,98.9712
2873.4158,98.9576
2874.3799,98.9495
2875.3442,98.9542
2876.3083,98.9764
2877.2727,99.0169
2878.2368,99.0724
2879.2012,99.1363
2880.1653,99.1997
2881.1296,99.2539
2882.0938,99.2923
2883.0581,99.3122
2884.0222,99.315
2884.9866,99.3049
2885.9507,99.2877
2886.9150,99.2686
2887.8792,99.2521
2888.8435,99.2404
2889.8076,99.2327
2890.7720,99.2243
2891.7361,99.2088
2892.7004,99.1812
2893.6646,99.1445
2894.6289,99.1122
2895.5930,99.1032
2896.5574,99.1318
2897.5215,99.196
2898.4858,99.2734
2899.4500,99.3291
2900.4143,99.331
2901.3784,99.266
2902.3428,99.1459
2903.3069,98.9999
2904.2712,98.8599
2905.2354,98.7477
2906.1997,98.6702
2907.1638,98.6218
2908.1282,98.5901
2909.0923,98.5608
2910.0566,98.5211
2911.0208,98.4617
2911.9851,98.3795
2912.9492,98.279
2913.9136,98.171
2914.8777,98.0686
2915.8420,97.9813
2916.8062,97.9113
2917.7705,97.8537
2918.7346,97.7995
2919.6990,97.7402
2920.6631,97.6707
2921.6274,97.5903
2922.5916,97.501
2923.5559,97.4057
2924.5200,97.3057
2925.4844,97.1995
2926.4485,97.0829
2927.4128,96.9511
2928.3770,96.8026
2929.3413,96.6419
2930.3054,96.4789
2931.2698,96.3261
2932.2339,96.1942
2933.1982,96.089
2934.1624,96.0106
2935.1267,95.9565
2936.0908,95.9241
2937.0552,95.9131
2938.0193,95.9249
2938.9836,95.9604
2939.9478,96.0182
2940.9121,96.0932
2941.8762,96.1781
2942.8406,96.2659
2943.8047,96.3522
2944.7690,96.4374
2945.7332,96.5253
2946.6975,96.6205
2947.6616,96.7252
2948.6260,96.8375
2949.5901,96.9518
2950.5544,97.0615
2951.5186,97.1626
2952.4829,97.2547
2953.4470,97.3409
2954.4114,97.4251
2955.3755,97.5097
2956.3398,97.5947
2957.3040,97.6783
2958.2683,97.7581
2959.2324,97.8331
2960.1968,97.9038
2961.1609,97.9727
2962.1252,98.0437
2963.0894,98.1201
2964.0537,98.2045
2965.0178,98.297
2965.9822,98.3953
2966.9463,98.4958
2967.9106,98.594
2968.8748,98.6858
2969.8391,98.7674
2970.8032,98.8361
2971.7676,98.8904
2972.7317,98.9316
2973.6960,98.9635
2974.6602,98.9919
2975.6245,99.0221
2976.5886,99.0568
2977.5530,99.095
2978.5171,99.1328
2979.4814,99.1667
2980.4456,99.1966
2981.4099,99.2285
2982.3740,99.2729
2983.3384,99.3405
2984.3025,99.4361
2985.2668,99.5548
2986.2310,99.6654
2987.1953,99.7343
2988.1594,99.7328
2989.1238,99.6513
2990.0879,99.5057
2991.0522,99.3317
2992.0164,99.1684
2992.9807,99.0421
2993.9448,98.9576
2994.9092,98.9009
2995.8733,98.8506
2996.8376,98.7909
2997.8018,98.7181
2998.7661,98.6386
2999.7302,98.5611
3000.6946,98.4895
3001.6587,98.4212
3002.6230,98.3503
3003.5872,98.2733
3004.5515,98.1918
3005.5156,98.1117
3006.4800,98.0395
3007.4441,97.9781
3008.4084,97.926
3009.3726,97.8782
3010.3369,97.8297
3011.3010,97.7771
3012.2654,97.7193
3013.2295,97.6568
3014.1938,97.5903
3015.1580,97.5204
3016.1223,97.4486
3017.0864,97.3774
3018.0508,97.3103
3019.0149,97.2498
3019.9792,97.1961
3020.9434,97.1465
3021.9077,97.0965
3022.8718,97.0428
3023.8362,96.9852
3024.8003,96.9275
3025.7646,96.8755
3026.7288,96.8348
3027.6931,96.8072
3028.6572,96.7897
3029.6216,96.7751
3030.5857,96.7547
3031.5500,96.7218
3032.5142,96.6752
3033.4785,96.6195
3034.4426,96.5636
3035.4070,96.5162
3036.3711,96.4826
3037.3354,96.4623
3038.2996,96.4501
3039.2639,96.4389
3040.2280,96.423
3041.1924,96.4003
3042.1565,96.3722
3043.1208,96.3425
3044.0850,96.3153
3045.0493,96.2929
3046.0134,96.2758
3046.9778,96.2625
3047.9419,96.2502
3048.9063,96.2362
3049.8704,96.2188
3050.8347,96.1978
3051.7988,96.1748
3052.7632,96.1515
3053.7273,96.1297
3054.6917,96.11
3055.6558,96.0921
3056.6201,96.0755
3057.5842,96.0599
3058.5486,96.0453
3059.5127,96.0325
3060.4771,96.0226
3061.4412,96.0163
3062.4055,96.0138
3063.3696,96.0135
3064.3340,96.0128
3065.2981,96.008
3066.2625,95.9967
3067.2266,95.9785
3068.1909,95.9559
3069.1550,95.9327
3070.1194,95.913
3071.0835,95.8993
3072.0479,95.8923
3073.0120,95.8911
3073.9763,95.8943
3074.9404,95.9004
3075.9048,95.9078
3076.8689,95.9152
3077.8333,95.9211
3078.7974,95.924
3079.7617,95.9229
3080.7258,95.9176
3081.6902,95.9093
3082.6543,95.9001
3083.6187,95.8929
3084.5828,95.8897
3085.5471,95.8904
3086.5112,95.8925
3087.4756,95.8919
3088.4397,95.885
3089.4041,95.8716
3090.3682,95.8554
3091.3325,95.8422
3092.2966,95.8369
3093.2610,95.8406
3094.2251,95.8502
3095.1895,95.8603
3096.1536,95.8665
3097.1179,95.8672
3098.0820,95.8638
3099.0464,95.8584
3100.0105,95.8518
3100.9749,95.8434
3101.9390,95.832
3102.9033,95.8177
3103.8674,95.8021
3104.8318,95.7877
3105.7959,95.7759
3106.7603,95.7666
3107.7244,95.758
3108.6887,95.7486
3109.6528,95.7381
3110.6172,95.7281
3111.5813,95.7207
3112.5457,95.7171
3113.5098,95.7167
3114.4741,95.7173
3115.4382,95.717
3116.4026,95.7146
3117.3667,95.7104
3118.3311,95.7044
3119.2952,95.6957
3120.2595,95.6825
3121.2236,95.6637
3122.1880,95.6409
3123.1521,95.6177
3124.1165,95.5985
3125.0806,95.5852
3126.0449,95.5759
3127.0090,95.5668
3127.9734,95.5551
3128.9375,95.5417
3129.9019,95.531
3130.8660,95.5278
3131.8303,95.5336
3132.7944,95.5446
3133.7588,95.5536
3134.7229,95.5539
3135.6873,95.5427
3136.6514,95.5224
3137.6157,95.4985
3138.5798,95.4765
3139.5442,95.4596
3140.5083,95.4479
3141.4727,95.4396
3142.4368,95.4323
3143.4011,95.4247
3144.3652,95.4172
3145.3296,95.4114
3146.2937,95.4085
3147.2581,95.4085
3148.2222,95.4091
3149.1865,95.4068
3150.1506,95.3982
3151.1150,95.3819
3152.0791,95.3593
3153.0435,95.3336
3154.0076,95.3085
3154.9719,95.2862
3155.9360,95.2673
3156.9004,95.2505
3157.8645,95.2341
3158.8289,95.2167
3159.7930,95.1988
3160.7573,95.1822
3161.7214,95.1697
3162.6858,95.1637
3163.6499,95.164
3164.6143,95.1678
3165.5784,95.1701
3166.5427,95.1663
3167.5068,95.154
3168.4712,95.134
3169.4353,95.0383
3170.3997,95.0146
3171.3638,94.9947
3172.3281,94.9799
3173.2922,94.97
3174.2566,94.9638
3175.2207,94.9592
3176.1851,94.9535
3177.1492,94.944
3178.1135,94.9297
3179.0776,94.912
3180.0420,94.8943
3181.0061,94.8802
3181.9705,94.8706
3182.9346,94.8639
3183.8989,94.8565
3184.8630,94.8456
3185.8274,94.8311
3186.7915,94.8149
3187.7559,94.7998
3188.7200,94.7863
3189.6843,94.7726
3190.6484,94.7558
3191.6128,94.734
3192.5769,94.7084
3193.5413,94.6824
3194.5054,94.6606
3195.4697,94.6462
3196.4338,94.6394
3197.3982,94.6378
3198.3623,94.6384
3199.3267,94.6388
3200.2908,94.6384
3201.2551,94.6371
3202.2192,94.634
3203.1836,94.6273
3204.1477,94.6145
3205.1121,94.5951
3206.0762,94.5712
3207.0405,94.5474
3208.0046,94.5282
3208.9690,94.516
3209.9331,94.5096
3210.8975,94.5055
3211.8616,94.5
3212.8259,94.4917
3213.7900,94.4816
3214.7544,94.4721
3215.7185,94.465
3216.6829,94.4602
3217.6470,94.4559
3218.6113,94.45
3219.5754,94.4406
3220.5398,94.4275
3221.5039,94.4109
3222.4683,94.3915
3223.4324,94.3706
3224.3967,94.3498
3225.3608,94.332
3226.3252,94.3212
3227.2893,94.3205
3228.2537,94.3305
3229.2178,94.3476
3230.1821,94.3648
3231.1462,94.374
3232.1106,94.3693
3233.0747,94.3494
3234.0391,94.3175
3235.0032,94.2795
3235.9675,94.2416
3236.9316,94.209
3237.8960,94.1854
3238.8601,94.1732
3239.8245,94.1729
3240.7886,94.1823
3241.7529,94.1956
3242.7170,94.2046
3243.6814,94.2011
3244.6455,94.1811
3245.6099,94.1467
3246.5740,94.1057
3247.5383,94.0676
3248.5024,94.0398
3249.4668,94.0253
3250.4309,94.0228
3251.3953,94.0278
3252.3594,94.0344
3253.3237,94.0363
3254.2878,94.0283
3255.2522,94.0079
3256.2163,93.9765
3257.1807,93.9389
3258.1448,93.9021
3259.1091,93.8719
3260.0732,93.8507
3261.0376,93.8367
3262.0017,93.8262
3262.9661,93.8162
3263.9302,93.8063
3264.8945,93.7992
3265.8586,93.798
3266.8230,93.8032
3267.7871,93.8124
3268.7515,93.8202
3269.7156,93.8209
3270.6799,93.8116
3271.6440,93.7922
3272.6084,93.7658
3273.5725,93.7361
3274.5369,93.7061
3275.5010,93.6774
3276.4653,93.651
3277.4294,93.628
3278.3938,93.6099
3279.3579,93.5981
3280.3223,93.5922
3281.2864,93.5895
3282.2507,93.586
3283.2148,93.5786
3284.1792,93.5667
3285.1433,93.5526
3286.1077,93.5398
3287.0718,93.5303
3288.0361,93.5237
3289.0002,93.5175
3289.9646,93.5093
3290.9287,93.498
3291.8931,93.4849
3292.8572,93.4706
3293.8215,93.4549
3294.7856,93.4357
3295.7500,93.4121
3296.7141,93.386
3297.6785,93.3633
3298.6426,93.3515
3299.6069,93.3551
3300.5710,93.3728
3301.5354,93.3978
3302.4995,93.42
3303.4639,93.4314
3304.4280,93.4282
3305.3923,93.4119
3306.3564,93.3869
3307.3208,93.3581
3308.2849,93.3298
3309.2493,93.3046
3310.2134,93.2841
3311.1777,93.2684
3312.1418,93.2565
3313.1062,93.2463
3314.0703,93.2353
3315.0347,93.2221
3315.9988,93.2067
3316.9631,93.1905
3317.9272,93.176
3318.8916,93.1658
3319.8557,93.1619
3320.8201,93.1651
3321.7842,93.1738
3322.7485,93.1846
3323.7126,93.1928
3324.6770,93.195
3325.6411,93.1901
3326.6055,93.1799
3327.5696,93.167
3328.5339,93.1528
3329.4980,93.1373
3330.4624,93.1193
3331.4265,93.0996
3332.3909,93.0822
3333.3550,93.0726
3334.3193,93.0755
3335.2834,93.0907
3336.2478,93.1133
3337.2119,93.1353
3338.1763,93.1496
3339.1404,93.1525
3340.1047,93.1444
3341.0688,93.1293
3342.0332,93.1121
3342.9973,93.0979
3343.9617,93.0901
3344.9258,93.0891
3345.8901,93.0923
3346.8542,93.0949
3347.8186,93.092
3348.7827,93.0805
3349.7471,93.0609
3350.7112,93.0361
3351.6755,93.0102
3352.6396,92.987
3353.6040,92.9698
3354.5681,92.9611
3355.5325,92.9618
3356.4966,92.9705
3357.4609,92.9831
3358.4250,92.9936
3359.3894,92.9971
3360.3535,92.9927
3361.3179,92.9845
3362.2820,92.9791
3363.2463,92.9821
3364.2104,92.9949
3365.1748,93.0133
3366.1389,93.0301
3367.1033,93.0386
3368.0674,93.0354
3369.0317,93.0219
3369.9958,93.0029
3370.9602,92.985
3371.9243,92.9734
3372.8887,92.9708
3373.8528,92.9755
3374.8171,92.9814
3375.7813,92.981
3376.7456,92.9684
3377.7097,92.9435
3378.6741,92.9125
3379.6382,92.885
3380.6025,92.8699
3381.5667,92.8711
3382.5310,92.8855
3383.4951,92.9053
3384.4595,92.9212
3385.4236,92.9266
3386.3879,92.9206
3387.3521,92.9075
3388.3164,92.8946
3389.2805,92.8885
3390.2449,92.892
3391.2090,92.9023
3392.1733,92.9122
3393.1375,92.915
3394.1018,92.9081
3395.0659,92.8949
3396.0303,92.8824
3396.9944,92.8761
3397.9587,92.8768
3398.9229,92.88
3399.8872,92.8798
3400.8513,92.8736
3401.8157,92.8638
3402.7798,92.8559
3403.7441,92.8542
3404.7083,92.8583
3405.6726,92.8638
3406.6367,92.8651
3407.6011,92.8594
3408.5652,92.8482
3409.5295,92.8355
3410.4937,92.8249
3411.4580,92.8176
3412.4221,92.8123
3413.3865,92.8066
3414.3506,92.799
3415.3149,92.7899
3416.2791,92.7822
3417.2434,92.779
3418.2075,92.7824
3419.1719,92.7914
3420.1360,92.8028
3421.1003,92.813
3422.0645,92.8205
3423.0288,92.827
3423.9929,92.8353
3424.9573,92.8471
3425.9214,92.8613
3426.8857,92.8736
3427.8499,92.8795
3428.8142,92.877
3429.7783,92.8692
3430.7427,92.8628
3431.7068,92.8645
3432.6711,92.8763
3433.6353,92.8938
3434.5996,92.9088
3435.5637,92.9142
3436.5281,92.9078
3437.4922,92.8934
3438.4565,92.8774
3439.4207,92.8646
3440.3850,92.8558
3441.3491,92.8492
3442.3135,92.8441
3443.2776,92.8436
3444.2419,92.8536
3445.2061,92.878
3446.1704,92.9141
3447.1345,92.952
3448.0989,92.9808
3449.0630,92.9949
3450.0273,92.9971
3450.9915,92.9951
3451.9558,92.9975
3452.9199,93.008
3453.8843,93.0246
3454.8484,93.0408
3455.8127,93.0508
3456.7769,93.0539
3457.7412,93.0545
3458.7053,93.0598
3459.6697,93.0748
3460.6338,93.0992
3461.5981,93.1281
3462.5623,93.1555
3463.5266,93.178
3464.4907,93.197
3465.4551,93.2162
3466.4192,93.2379
3467.3835,93.2599
3468.3477,93.2755
3469.3120,93.2782
3470.2761,93.2666
3471.2405,93.2467
3472.2046,93.229
3473.1689,93.2231
3474.1331,93.2325
3475.0974,93.2529
3476.0615,93.277
3477.0259,93.2993
3477.9900,93.3196
3478.9543,93.3416
3479.9185,93.3673
3480.8828,93.3944
3481.8469,93.4172
3482.8113,93.4313
3483.7754,93.4377
3484.7397,93.4416
3485.7039,93.4482
3486.6682,93.4601
3487.6323,93.4751
3488.5967,93.4889
3489.5608,93.4988
3490.5251,93.5064
3491.4893,93.5175
3492.4536,93.5384
3493.4177,93.5724
3494.3821,93.6162
3495.3462,93.6599
3496.3105,93.6913
3497.2747,93.7034
3498.2390,93.6986
3499.2031,93.6882
3500.1675,93.6872
3501.1316,93.7052
3502.0959,93.7389
3503.0601,93.7737
3504.0244,93.7958
3504.9885,93.802
3505.9529,93.8001
3506.9170,93.8037
3507.8813,93.825
3508.8455,93.8673
3509.8098,93.9215
3510.7739,93.9725
3511.7383,94.0085
3512.7024,94.0268
3513.6667,94.0318
3514.6309,94.0306
3515.5952,94.0292
3516.5593,94.0309
3517.5237,94.0376
3518.4878,94.0516
3519.4521,94.0757
3520.4163,94.1123
3521.3806,94.1605
3522.3447,94.2153
3523.3091,94.2703
3524.2732,94.3224
3525.2375,94.3732
3526.2017,94.4248
3527.1660,94.4754
3528.1301,94.5182
3529.0945,94.546
3530.0586,94.5579
3531.0229,94.5593
3531.9871,94.5598
3532.9514,94.5687
3533.9155,94.5927
3534.8799,94.6329
3535.8440,94.6857
3536.8083,94.7446
3537.7725,94.804
3538.7368,94.8598
3539.7009,94.9088
3540.6653,94.9506
3541.6294,94.9912
3542.5938,95.0418
3543.5579,95.1107
3544.5222,95.1933
3545.4863,95.272
3546.4507,95.3296
3547.4148,95.3614
3548.3792,95.375
3549.3433,95.3849
3550.3076,95.4094
3551.2717,95.4632
3552.2361,95.547
3553.2002,95.6466
3554.1646,95.742
3555.1287,95.8205
3556.0930,95.8816
3557.0571,95.9345
3558.0215,95.988
3558.9856,96.0399
3559.9500,96.0735
3560.9141,96.069
3561.8784,96.0218
3562.8425,95.9561
3563.8069,95.9261
3564.7710,95.9896
3565.7354,96.151
3566.6995,96.3308
3567.6638,96.4414
3568.6279,96.4735
3569.5923,96.4638
3570.5564,96.435
3571.5208,96.3966
3572.4849,96.3635
3573.4492,96.3568
3574.4133,96.3908
3575.3777,96.4625
3576.3418,96.5552
3577.3062,96.6482
3578.2703,96.7243
3579.2346,96.7698
3580.1987,96.7728
3581.1631,96.7261
3582.1272,96.634
3583.0916,96.5226
3584.0557,96.4464
3585.0200,96.4702
3585.9841,96.6156
3586.9485,96.814
3587.9126,96.9582
3588.8770,97.0054
3589.8411,96.981
3590.8054,96.9224
3591.7695,96.8621
3592.7339,96.8307
3593.6980,96.8451
3594.6624,96.8969
3595.6265,96.9629
3596.5908,97.0303
3597.5549,97.1032
3598.5193,97.188
3599.4834,97.2754
3600.4478,97.3382
3601.4119,97.3479
3602.3762,97.295
3603.3403,97.1943
3604.3047,97.0796
3605.2688,96.9936
3606.2332,96.9674
3607.1973,96.9982
3608.1616,97.0507
3609.1257,97.092
3610.0901,97.1165
3611.0542,97.1355
3612.0186,97.1535
3612.9829,97.1594
3613.9470,97.1383
3614.9114,97.0914
3615.8755,97.0477
3616.8398,97.0553
3617.8040,97.149
3618.7683,97.3117
3619.7324,97.4789
3620.6968,97.5913
3621.6609,97.6204
3622.6252,97.5509
3623.5894,97.3798
3624.5537,97.1446
3625.5178,96.9489
3626.4822,96.9394
3627.4463,97.1874
3628.4106,97.5519
3629.3748,97.7973
3630.3391,97.8631
3631.3032,97.8301
3632.2676,97.7635
3633.2317,97.6924
3634.1960,97.6381
3635.1602,97.6195
3636.1245,97.6432
3637.0886,97.7012
3638.0530,97.778
3639.0171,97.8579
3639.9814,97.9249
3640.9456,97.958
3641.9099,97.9327
3642.8740,97.8316
3643.8384,97.6656
3644.8025,97.5027
3645.7668,97.4898
3646.7310,97.8121
3647.6953,98.4801
3648.6594,99.0786
3649.6238,99.1666
3650.5879,98.8754
3651.5522,98.5259
3652.5164,98.2401
3653.4807,98.0327
3654.4448,97.9275
3655.4092,97.9577
3656.3733,98.1157
3657.3376,98.3387
3658.3018,98.5531
3659.2661,98.7167
3660.2302,98.8226
3661.1946,98.8807
3662.1587,98.8954
3663.1230,98.855
3664.0872,98.7426
3665.0515,98.5655
3666.0156,98.3793
3666.9800,98.2844
3667.9441,98.3629
3668.9084,98.5716
3669.8726,98.736
3670.8369,98.7226
3671.8010,98.5608
3672.7654,98.39
3673.7295,98.363
3674.6938,98.5396
3675.6580,98.8071
3676.6223,98.9944
3677.5864,99.0551
3678.5508,99.0365
3679.5149,98.9795
3680.4792,98.901
3681.4434,98.8035
3682.4077,98.6764
3683.3718,98.5023
3684.3362,98.2859
3685.3003,98.0802
3686.2646,97.9889
3687.2288,98.1418
3688.1931,98.5548
3689.1572,99.0264
3690.1216,99.3044
3691.0857,99.3374
3692.0500,99.2215
3693.0142,99.0412
3693.9785,98.8346
3694.9426,98.6181
3695.9070,98.4053
3696.8711,98.2152
3697.8354,98.0781
3698.7996,98.0323
3699.7639,98.1058
3700.7280,98.2828
3701.6924,98.49
3702.6565,98.6335
3703.6208,98.6548
3704.5850,98.5463
3705.5493,98.3358
3706.5134,98.0798
3707.4778,97.8677
3708.4419,97.8076
3709.4063,97.9605
3710.3704,98.2461
3711.3347,98.4804
3712.2988,98.5695
3713.2632,98.5559
3714.2273,98.4939
3715.1917,98.3993
3716.1558,98.2807
3717.1201,98.1673
3718.0842,98.1051
3719.0486,98.1334
3720.0127,98.2621
3720.9771,98.4699
3721.9412,98.7208
3722.9055,98.978
3723.8696,99.2034
3724.8340,99.3548
3725.7981,99.3976
3726.7625,99.3203
3727.7266,99.1347
3728.6909,98.8701
3729.6550,98.5789
3730.6194,98.3488
3731.5835,98.3036
3732.5479,98.5637
3733.5120,99.135
3734.4763,99.7947
3735.4404,100.212
3736.4048,100.268
3737.3689,100.07
3738.3333,99.7292
3739.2974,99.2832
3740.2617,98.7618
3741.2258,98.2538
3742.1902,97.9097
3743.1543,97.8506
3744.1187,98.0334
3745.0828,98.2679
3746.0471,98.4094
3747.0112,98.4529
3747.9756,98.4866
3748.9397,98.6087
3749.9041,98.8049
3750.8682,98.9053
3751.8325,98.8027
3752.7966,98.5811
3753.7610,98.3429
3754.7251,98.1219
3755.6895,97.9413
3756.6536,97.8441
3757.6179,97.8591
3758.5820,97.9566
3759.5464,98.0616
3760.5105,98.1129
3761.4749,98.0939
3762.4390,98.0203
3763.4033,97.9232
3764.3674,97.8357
3765.3318,97.7835
3766.2959,97.7784
3767.2603,97.8203
3768.2244,97.8985
3769.1887,97.9915
3770.1528,98.0687
3771.1172,98.1023
3772.0813,98.077
3773.0457,97.9911
3774.0098,97.8582
3774.9741,97.7141
3775.9382,97.6156
3776.9026,97.6184
3777.8667,97.7341
3778.8311,97.9108
3779.7952,98.07
3780.7595,98.1642
3781.7236,98.1922
3782.6880,98.177
3783.6521,98.1432
3784.6165,98.1061
3785.5806,98.0712
3786.5449,98.0396
3787.5090,98.0111
3788.4734,97.9835
3789.4375,97.9517
3790.4019,97.9128
3791.3660,97.8741
3792.3303,97.856
3793.2944,97.8826
3794.2588,97.9609
3795.2229,98.0652
3796.1873,98.1489
3797.1514,98.1805
3798.1157,98.17
3799.0798,98.1561
3800.0442,98.1557
3801.0083,98.1328
3801.9727,98.0391
3802.9368,97.878
3803.9011,97.7031
3804.8652,97.5845
3805.8296,97.583
3806.7937,97.7133
3807.7581,97.9196
3808.7222,98.1066
3809.6865,98.1963
3810.6506,98.1583
3811.6150,98.0206
3812.5791,97.8665
3813.5435,97.7981
3814.5076,97.8632
3815.4719,98.0037
3816.4360,98.1109
3817.4004,98.1321
3818.3645,98.1007
3819.3289,98.0796
3820.2930,98.0934
3821.2573,98.1179
3822.2214,98.1293
3823.1858,98.1281
3824.1499,98.1213
3825.1143,98.1143
3826.0784,98.1173
3827.0427,98.1417
3828.0068,98.1898
3828.9712,98.2494
3829.9353,98.2974
3830.8997,98.3075
3831.8638,98.2589
3832.8281,98.146
3833.7922,97.9885
3834.7566,97.8344
3835.7207,97.7465
3836.6851,97.769
3837.6492,97.8919
3838.6135,98.0569
3839.5776,98.2098
3840.5420,98.3354
3841.5061,98.4416
3842.4705,98.5345
3843.4346,98.6077
3844.3989,98.6428
3845.3630,98.6124
3846.3274,98.4844
3847.2915,98.2318
3848.2559,97.8552
3849.2200,97.4177
3850.1843,97.0803
3851.1484,97.0846
3852.1128,97.5613
3853.0769,98.2313
3854.0413,98.6474
3855.0054,98.7615
3855.9697,98.7349
3856.9338,98.6283
3857.8982,98.4391
3858.8623,98.1898
3859.8267,97.9517
3860.7908,97.8217
3861.7551,97.8651
3862.7192,98.0537
3863.6836,98.2684
3864.6477,98.3884
3865.6121,98.3728
3866.5762,98.2609
3867.5405,98.1317
3868.5046,98.0629
3869.4690,98.094
3870.4331,98.2035
3871.3975,98.3274
3872.3616,98.4067
3873.3259,98.4156
3874.2900,98.3559
3875.2544,98.2448
3876.2185,98.1128
3877.1829,98.0046
3878.1470,97.9686
3879.1113,98.0293
3880.0754,98.1618
3881.0398,98.3029
3882.0039,98.3945
3882.9683,98.4169
3883.9324,98.3813
3884.8967,98.3064
3885.8608,98.2057
3886.8252,98.0909
3887.7893,97.983
3888.7537,97.9215
3889.7178,97.9591
3890.6821,98.1218
3891.6462,98.3611
3892.6106,98.5697
3893.5747,98.6593
3894.5391,98.6041
3895.5032,98.4312
3896.4675,98.2027
3897.4316,97.9975
3898.3960,97.8811
3899.3601,97.8754
3900.3245,97.959
3901.2886,98.0954
3902.2529,98.2524
3903.2170,98.3977
3904.1814,98.5023
3905.1455,98.5539
3906.1099,98.5577
3907.0740,98.5251
3908.0383,98.4695
3909.0024,98.4059
3909.9668,98.347
3910.9309,98.2976
3911.8953,98.255
3912.8594,98.2186
3913.8237,98.1991
3914.7878,98.2182
3915.7522,98.2906
3916.7163,98.403
3917.6807,98.5127
3918.6448,98.5765
3919.6091,98.5782
3920.5732,98.5303
3921.5376,98.4622
3922.5017,98.4053
3923.4661,98.3783
3924.4302,98.3778
3925.3945,98.3856
3926.3586,98.3848
3927.3230,98.3737
3928.2871,98.3675
3929.2515,98.3905
3930.2156,98.4576
3931.1799,98.5565
3932.1440,98.6519
3933.1084,98.7106
3934.0725,98.7193
3935.0369,98.6814
3936.0010,98.6081
3936.9653,98.5133
3937.9294,98.4153
3938.8938,98.336
3939.8579,98.2969
3940.8223,98.3097
3941.7864,98.368
3942.7507,98.4474
3943.7148,98.5199
3944.6792,98.5681
3945.6433,98.5919
3946.6077,98.6033
3947.5718,98.6158
3948.5361,98.6328
3949.5002,98.6452
3950.4646,98.6402
3951.4287,98.6118
3952.3931,98.565
3953.3572,98.5133
3954.3215,98.4724
3955.2856,98.4546
3956.2500,98.4647
3957.2141,98.5003
3958.1785,98.5551
3959.1426,98.6209
3960.1069,98.6875
3961.0710,98.7426
3962.0354,98.7734
3962.9995,98.7725
3963.9639,98.742
3964.9280,98.6925
3965.8923,98.6386
3966.8564,98.5931
3967.8208,98.5628
3968.7849,98.549
3969.7493,98.5504
3970.7134,98.5672
3971.6777,98.6011
3972.6418,98.6514
3973.6062,98.7109
3974.5703,98.7651
3975.5347,98.7984
3976.4988,98.8025
3977.4631,98.7812
3978.4272,98.7488
3979.3916,98.7222
3980.3557,98.7126
3981.3201,98.7206
3982.2842,98.7369
3983.2485,98.7489
3984.2126,98.7478
3985.1770,98.7335
3986.1411,98.7143
3987.1055,98.7024
3988.0696,98.7077
3989.0339,98.7331
3989.9980,98.7718
3990.9624,98.8104
3991.9265,98.8359
3992.8909,98.8422
3993.8550,98.833
3994.8193,98.8188
3995.7834,98.8102
3996.7478,98.8112
3997.7119,98.8181
3998.6763,98.8225
3999.6404,98.8181
4000.6047,98.9653

##### Extended Information
[Comments]
Sample name
Comment
User
Division
Company,HANKYONG

[Detailed Information]
Creation date,4/24/2024 3:17 PM

Data array type,Linear data array
Horizontal axis,Wavenumber [cm-1]
Vertical axis,%T
Start,649.893 cm-1
End,4000.6 cm-1
Data interval,0.964233 cm-1
Data points,3476    

[Measurement Information]
Model Name,FT/IR-4700typeA
Serial Number,D056761788

Accessory,ATR PRO ONE
Accessory S/N,C174761809
Incident angle,45 deg

Measurement Date,4/24/2024 3:15 PM

Light Source,Standard
Detector,TGS
Accumulation,32
Resolution,4 cm-1
Zero Filling,On
Apodization,Cosine
Gain,Auto (4)
Aperture,Auto (7.1 mm)
Scanning Speed,Auto (2 mm/sec)
Filter,Auto (30000 Hz)

