TITLE,
DATA TYPE,INFRARED SPECTRUM
ORIGIN,JASCO
OWNER,
DATE,24/04/24
TIME,15:55:46
SPECTROMETER/DATA SYSTEM,
LOCALE,1033
RESOLUTION,
DELTAX,0.964233
XUNITS,1/CM
YUNITS,TRANSMITTANCE
FIRSTX,  649.8934
LASTX, 4000.6047
NPOINTS,    3476
FIRSTY,    96.17577
MAXY,   101.64724
MINY,    79.87964
XYDATA
649.8934,96.1758
650.8576,96.3288
651.8218,96.4701
652.7861,96.5812
653.7503,96.6516
654.7145,96.6886
655.6788,96.7155
656.6430,96.7594
657.6072,96.8357
658.5715,96.9403
659.5357,97.0558
660.4999,97.1647
661.4642,97.2648
662.4284,97.3715
663.3926,97.5098
664.3569,97.7042
665.3211,97.9719
666.2853,98.3075
667.2496,98.6426
668.2138,98.8235
669.1780,98.7545
670.1423,98.553
671.1065,98.3876
672.0707,98.3212
673.0350,98.3427
673.9992,98.4176
674.9634,98.5075
675.9277,98.5803
676.8919,98.6214
677.8561,98.6364
678.8204,98.6406
679.7846,98.6457
680.7488,98.6552
681.7131,98.67
682.6773,98.6956
683.6415,98.742
684.6058,98.8184
685.5700,98.924
686.5342,99.0438
687.4985,99.1531
688.4627,99.2273
689.4269,99.2546
690.3912,99.2417
691.3554,99.2083
692.3196,99.1749
693.2839,99.1512
694.2481,99.1362
695.2123,99.124
696.1766,99.1078
697.1408,99.0841
698.1050,99.0578
699.0693,99.0411
700.0335,99.0465
700.9977,99.0793
701.9620,99.1346
702.9262,99.2004
703.8904,99.2641
704.8547,99.3188
705.8189,99.364
706.7831,99.4033
707.7474,99.4402
708.7116,99.4762
709.6758,99.512
710.6401,99.549
711.6043,99.589
712.5685,99.6316
713.5328,99.6721
714.4970,99.702
715.4612,99.6975
716.4255,99.6924
717.3897,99.6745
718.3539,99.6541
719.3182,99.639
720.2824,99.6295
721.2466,99.618
722.2109,99.5945
723.1751,99.553
724.1393,99.4953
725.1036,99.4288
726.0678,99.3639
727.0320,99.3101
727.9963,99.2742
728.9605,99.2592
729.9247,99.2642
730.8890,99.2842
731.8532,99.3114
732.8174,99.3359
733.7817,99.3489
734.7459,99.3459
735.7101,99.3294
736.6744,99.3083
737.6386,99.2939
738.6028,99.2938
739.5671,99.3075
740.5313,99.3253
741.4955,99.3336
742.4598,99.322
743.4240,99.2892
744.3882,99.2433
745.3525,99.1966
746.3167,99.1588
747.2809,99.1332
748.2452,99.1178
749.2094,99.1094
750.1736,99.1075
751.1379,99.1134
752.1021,99.1266
753.0663,99.1415
754.0306,99.1484
754.9948,99.1374
755.9590,99.1048
756.9233,99.0547
757.8875,98.9973
758.8517,98.9431
759.8160,98.8982
760.7802,98.8631
761.7444,98.8343
762.7087,98.8085
763.6729,98.7843
764.6371,98.7628
765.6014,98.7459
766.5656,98.7348
767.5298,98.73
768.4941,98.7312
769.4583,98.7377
770.4225,98.7481
771.3868,98.759
772.3510,98.7658
773.3152,98.7635
774.2795,98.7494
775.2437,98.7245
776.2079,98.6936
777.1722,98.6629
778.1364,98.6372
779.1006,98.6179
780.0649,98.6035
781.0291,98.592
781.9933,98.5823
782.9576,98.575
783.9218,98.5708
784.8860,98.5681
785.8503,98.5625
786.8145,98.5479
787.7787,98.5197
788.7430,98.4772
789.7072,98.4247
790.6714,98.3693
791.6357,98.3172
792.5999,98.2703
793.5641,98.2259
794.5284,98.178
795.4926,98.1216
796.4568,98.0556
797.4211,97.9828
798.3853,97.9073
799.3495,97.8305
800.3138,97.7493
801.2780,97.6581
802.2422,97.5534
803.2065,97.438
804.1707,97.3222
805.1349,97.2194
806.0992,97.1398
807.0634,97.0852
808.0276,97.0478
808.9919,97.0149
809.9561,96.9752
810.9203,96.9232
811.8846,96.8609
812.8488,96.7939
813.8130,96.7273
814.7773,96.6623
815.7415,96.5963
816.7057,96.5252
817.6700,96.4478
818.6342,96.3677
819.5984,96.2932
820.5627,96.2337
821.5269,96.1955
822.4911,96.1784
823.4554,96.1748
824.4196,96.173
825.3839,96.1618
826.3481,96.1353
827.3123,96.0955
828.2766,96.0508
829.2408,96.012
830.2050,95.987
831.1693,95.979
832.1335,95.987
833.0977,96.0091
834.0620,96.0459
835.0262,96.1
835.9904,96.1734
836.9547,96.2646
837.9189,96.3667
838.8831,96.4698
839.8474,96.5655
840.8116,96.6505
841.7758,96.7271
842.7401,96.8009
843.7043,96.8768
844.6685,96.9559
845.6328,97.0352
846.5970,97.1097
847.5612,97.1748
848.5255,97.2292
849.4897,97.2758
850.4539,97.3208
851.4182,97.3712
852.3824,97.4315
853.3466,97.5021
854.3109,97.5799
855.2751,97.6608
856.2393,97.7436
857.2036,97.8305
858.1678,97.9258
859.1320,98.033
860.0963,98.1518
861.0605,98.2782
862.0247,98.407
862.9890,98.5334
863.9532,98.6551
864.9174,98.7714
865.8817,98.8823
866.8459,98.9885
867.8101,99.0901
868.7744,99.1861
869.7386,99.2732
870.7028,99.346
871.6671,99.3988
872.6313,99.4288
873.5955,99.4384
874.5598,99.4346
875.5240,99.4252
876.4882,99.4148
877.4525,99.3961
878.4167,99.3713
879.3809,99.3451
880.3452,99.3224
881.3094,99.3104
882.2736,99.3143
883.2379,99.3341
884.2021,99.3644
885.1663,99.3981
886.1306,99.4301
887.0948,99.4596
888.0590,99.4879
889.0233,99.5152
889.9875,99.5384
890.9517,99.5515
891.9160,99.5479
892.8802,99.5237
893.8444,99.478
894.8087,99.4119
895.7729,99.3266
896.7371,99.2225
897.7014,99.1006
898.6656,98.9629
899.6298,98.8133
900.5941,98.6553
901.5583,98.4907
902.5225,98.3186
903.4868,98.1371
904.4510,97.9466
905.4152,97.7519
906.3795,97.5619
907.3437,97.3868
908.3079,97.2346
909.2722,97.1097
910.2364,97.0142
911.2006,96.9505
912.1649,96.9232
913.1291,96.9378
914.0933,96.9977
915.0576,97.1014
916.0218,97.2426
916.9860,97.4128
917.9503,97.6051
918.9145,97.816
919.8787,98.0438
920.8430,98.2846
921.8072,98.5304
922.7714,98.7693
923.7357,98.9893
924.6999,99.1824
925.6641,99.3464
926.6284,99.4839
927.5926,99.5996
928.5568,99.6978
929.5211,99.7811
930.4853,99.8502
931.4495,99.9049
932.4138,99.9434
933.3780,99.963
934.3422,99.9607
935.3065,99.9359
936.2707,99.8912
937.2349,99.8561
938.1992,99.8629
939.1634,99.8695
940.1276,99.8793
941.0919,99.8933
942.0561,99.9114
943.0203,99.9329
943.9846,99.9559
944.9488,99.9759
945.9130,99.9859
946.8773,99.9792
947.8415,99.9522
948.8057,99.9072
949.7700,99.8517
950.7342,99.7942
951.6984,99.7402
952.6627,99.6893
953.6269,99.6367
954.5911,99.5768
955.5554,99.5074
956.5196,99.4307
957.4838,99.3519
958.4481,99.276
959.4123,99.2048
960.3765,99.1368
961.3408,99.0685
962.3050,98.997
963.2692,98.9231
964.2335,98.8508
965.1977,98.7864
966.1619,98.7357
967.1262,98.701
968.0904,98.6802
969.0546,98.6675
970.0189,98.6556
970.9831,98.6391
971.9473,98.6161
972.9116,98.5878
973.8758,98.5563
974.8400,98.5219
975.8043,98.4826
976.7685,98.4346
977.7327,98.3751
978.6970,98.304
979.6612,98.223
980.6254,98.1347
981.5897,98.0407
982.5539,97.9413
983.5181,97.8357
984.4824,97.7238
985.4466,97.6057
986.4108,97.4818
987.3751,97.3521
988.3393,97.2158
989.3035,97.0726
990.2678,96.9219
991.2320,96.7632
992.1962,96.5949
993.1605,96.4146
994.1247,96.2195
995.0889,96.0083
996.0532,95.7809
997.0174,95.5387
997.9816,95.2822
998.9459,95.011
999.9101,94.7228
1000.8743,94.4157
1001.8386,94.0886
1002.8028,93.7424
1003.7670,93.3793
1004.7313,93.0023
1005.6955,92.6143
1006.6597,92.2173
1007.6240,91.8127
1008.5882,91.4015
1009.5524,90.9851
1010.5167,90.5667
1011.4809,90.1527
1012.4451,89.7518
1013.4094,89.3727
1014.3736,89.0208
1015.3378,88.696
1016.3021,88.3934
1017.2663,88.1068
1018.2305,87.8322
1019.1948,87.57
1020.1590,87.3245
1021.1232,87.0999
1022.0875,86.898
1023.0517,86.717
1024.0160,86.5528
1024.9802,86.4022
1025.9445,86.265
1026.9087,86.1453
1027.8729,86.0512
1028.8372,85.9941
1029.8014,85.987
1030.7656,86.0427
1031.7299,86.171
1032.6941,86.3763
1033.6583,86.6553
1034.6226,86.9975
1035.5868,87.3875
1036.5510,87.8091
1037.5153,88.2486
1038.4795,88.6958
1039.4437,89.1421
1040.4080,89.5785
1041.3722,89.9948
1042.3364,90.3805
1043.3007,90.7272
1044.2649,91.0307
1045.2291,91.2916
1046.1934,91.5144
1047.1576,91.7056
1048.1218,91.8719
1049.0861,92.0193
1050.0503,92.1519
1051.0145,92.273
1051.9788,92.3847
1052.9430,92.4891
1053.9072,92.5883
1054.8715,92.6842
1055.8357,92.7779
1056.7999,92.8683
1057.7642,92.9535
1058.7284,93.0312
1059.6926,93.101
1060.6569,93.1643
1061.6211,93.2222
1062.5853,93.2726
1063.5496,93.3094
1064.5138,93.323
1065.4780,93.3043
1066.4423,93.2486
1067.4065,93.1557
1068.3707,93.0288
1069.3350,92.8703
1070.2992,92.681
1071.2634,92.4614
1072.2277,92.214
1073.1919,91.9449
1074.1561,91.6619
1075.1204,91.3724
1076.0846,91.0802
1077.0488,90.7853
1078.0131,90.4848
1078.9773,90.1759
1079.9415,89.8571
1080.9058,89.5301
1081.8700,89.1992
1082.8342,88.8693
1083.7985,88.5443
1084.7627,88.2249
1085.7269,87.9087
1086.6912,87.593
1087.6554,87.278
1088.6196,86.9684
1089.5839,86.673
1090.5481,86.4006
1091.5123,86.156
1092.4766,85.9386
1093.4408,85.7432
1094.4050,85.5628
1095.3693,85.3911
1096.3335,85.2215
1097.2977,85.0456
1098.2620,84.851
1099.2262,84.623
1100.1904,84.3481
1101.1547,84.0188
1102.1189,83.6371
1103.0831,83.2127
1104.0474,82.7594
1105.0116,82.2904
1105.9758,81.8167
1106.9401,81.35
1107.9043,80.9068
1108.8685,80.5105
1109.8328,80.1897
1110.7970,79.9726
1111.7612,79.8796
1112.7255,79.9208
1113.6897,80.0958
1114.6539,80.3977
1115.6182,80.8171
1116.5824,81.3435
1117.5466,81.965
1118.5109,82.6686
1119.4751,83.4411
1120.4393,84.271
1121.4036,85.1503
1122.3678,86.073
1123.3320,87.0328
1124.2963,88.0212
1125.2605,89.0275
1126.2247,90.0411
1127.1890,91.0546
1128.1532,92.0634
1129.1174,93.0639
1130.0817,94.05
1131.0459,95.0103
1132.0101,95.9281
1132.9744,96.7836
1133.9386,97.557
1134.9028,98.2325
1135.8671,98.8001
1136.8313,99.2574
1137.7955,99.6078
1138.7598,99.8358
1139.7240,99.8945
1140.6882,99.8713
1141.6525,99.7758
1142.6167,99.6206
1143.5809,99.4217
1144.5452,99.1975
1145.5094,98.9647
1146.4736,98.7347
1147.4379,98.5121
1148.4021,98.2971
1149.3663,98.0907
1150.3306,97.8988
1151.2948,97.7332
1152.2590,97.608
1153.2233,97.5341
1154.1875,97.5141
1155.1517,97.5414
1156.1160,97.6027
1157.0802,97.6828
1158.0444,97.7692
1159.0087,97.8541
1159.9729,97.9339
1160.9371,98.0072
1161.9014,98.0722
1162.8656,98.1253
1163.8298,98.1609
1164.7941,98.173
1165.7583,98.157
1166.7225,98.1112
1167.6868,98.0373
1168.6510,97.9391
1169.6152,97.8209
1170.5795,97.6848
1171.5437,97.5299
1172.5079,97.3526
1173.4722,97.1479
1174.4364,96.9119
1175.4006,96.6424
1176.3649,96.3399
1177.3291,96.0068
1178.2933,95.6476
1179.2576,95.2686
1180.2218,94.8771
1181.1860,94.4807
1182.1503,94.0854
1183.1145,93.695
1184.0787,93.3115
1185.0430,92.9355
1186.0072,92.5677
1186.9714,92.2085
1187.9357,91.8571
1188.8999,91.5113
1189.8641,91.1671
1190.8284,90.8206
1191.7926,90.4693
1192.7568,90.1121
1193.7211,89.7487
1194.6853,89.3785
1195.6495,88.9995
1196.6138,88.6092
1197.5780,88.2053
1198.5422,87.7873
1199.5065,87.3123
1200.4707,86.8769
1201.4349,86.4362
1202.3992,85.996
1203.3634,85.5641
1204.3276,85.1496
1205.2919,84.762
1206.2561,84.4092
1207.2203,84.0969
1208.1846,83.829
1209.1488,83.6086
1210.1130,83.4389
1211.0773,83.3232
1212.0415,83.2637
1213.0057,83.2617
1213.9700,83.3165
1214.9342,83.4269
1215.8984,83.5915
1216.8627,83.8073
1217.8269,84.0694
1218.7911,84.3705
1219.7554,84.7012
1220.7196,85.0518
1221.6838,85.4135
1222.6481,85.7784
1223.6123,86.1393
1224.5765,86.4883
1225.5408,86.8176
1226.5050,87.1208
1227.4692,87.3935
1228.4335,87.6342
1229.3977,87.8437
1230.3619,88.024
1231.3262,88.1784
1232.2904,88.3108
1233.2546,88.4267
1234.2189,88.5318
1235.1831,88.6317
1236.1473,88.7306
1237.1116,88.8308
1238.0758,88.9334
1239.0400,89.0391
1240.0043,89.1498
1240.9685,89.2683
1241.9327,89.398
1242.8970,89.5408
1243.8612,89.6962
1244.8254,89.8606
1245.7897,90.0281
1246.7539,90.1916
1247.7181,90.3439
1248.6824,90.4784
1249.6466,90.59
1250.6108,90.6751
1251.5751,90.7318
1252.5393,90.7598
1253.5035,90.76
1254.4678,90.7349
1255.4320,90.6869
1256.3962,90.6187
1257.3605,90.5327
1258.3247,90.4309
1259.2889,90.3157
1260.2532,90.1909
1261.2174,90.0609
1262.1816,89.9308
1263.1459,89.8052
1264.1101,89.6878
1265.0743,89.5822
1266.0386,89.4924
1267.0028,89.4241
1267.9670,89.3833
1268.9313,89.3758
1269.8955,89.4049
1270.8597,89.4703
1271.8240,89.5682
1272.7882,89.6928
1273.7524,89.8382
1274.7167,89.9999
1275.6809,90.1748
1276.6451,90.3603
1277.6094,90.5538
1278.5736,90.7521
1279.5378,90.9516
1280.5021,91.149
1281.4663,91.341
1282.4305,91.5244
1283.3948,91.6966
1284.3590,91.8557
1285.3232,92.0006
1286.2875,92.1311
1287.2517,92.2468
1288.2159,92.3474
1289.1802,92.4326
1290.1444,92.5029
1291.1086,92.5592
1292.0729,92.6033
1293.0371,92.636
1294.0013,92.6572
1294.9656,92.666
1295.9298,92.6607
1296.8940,92.64
1297.8583,92.6035
1298.8225,92.5523
1299.7867,92.4886
1300.7510,92.4161
1301.7152,92.3402
1302.6794,92.2663
1303.6437,92.1981
1304.6079,92.1372
1305.5721,92.0823
1306.5364,92.0304
1307.5006,91.9786
1308.4648,91.9255
1309.4291,91.8714
1310.3933,91.8176
1311.3575,91.7653
1312.3218,91.7147
1313.2860,91.6654
1314.2502,91.6167
1315.2145,91.569
1316.1787,91.5234
1317.1429,91.4814
1318.1072,91.4434
1319.0714,91.4088
1320.0356,91.3767
1320.9999,91.3467
1321.9641,91.3203
1322.9283,91.3006
1323.8926,91.293
1324.8568,91.3035
1325.8210,91.3387
1326.7853,91.4037
1327.7495,91.5021
1328.7137,91.6357
1329.6780,91.8045
1330.6422,92.0057
1331.6064,92.2326
1332.5707,92.4744
1333.5349,92.7206
1334.4991,92.9661
1335.4634,93.215
1336.4276,93.4804
1337.3918,93.7754
1338.3561,94.0991
1339.3203,94.4304
1340.2845,94.7399
1341.2488,95.0108
1342.2130,95.2457
1343.1772,95.457
1344.1415,95.6564
1345.1057,95.8497
1346.0699,96.0355
1347.0342,96.207
1347.9984,96.3571
1348.9626,96.4822
1349.9269,96.5831
1350.8911,96.6639
1351.8553,96.7304
1352.8196,96.7885
1353.7838,96.843
1354.7480,96.8946
1355.7123,96.9388
1356.6765,96.9682
1357.6407,96.9775
1358.6050,96.9684
1359.5692,96.9503
1360.5334,96.9346
1361.4977,96.9254
1362.4619,96.9161
1363.4261,96.8989
1364.3904,96.8734
1365.3546,96.8453
1366.3188,96.8203
1367.2831,96.8035
1368.2473,96.7987
1369.2115,96.8094
1370.1758,96.8409
1371.1400,96.9033
1372.1042,97.0098
1373.0685,97.1676
1374.0327,97.3664
1374.9969,97.5785
1375.9612,97.7779
1376.9254,97.9581
1377.8896,98.1302
1378.8539,98.3085
1379.8181,98.4978
1380.7823,98.6875
1381.7466,98.8582
1382.7108,98.9963
1383.6750,99.1055
1384.6393,99.2069
1385.6035,99.3263
1386.5677,99.4722
1387.5320,99.6245
1388.4962,99.7516
1389.4604,99.8344
1390.4247,99.8721
1391.3889,99.8782
1392.3531,99.8758
1393.3174,99.8892
1394.2816,99.93
1395.2458,99.9878
1396.2101,100.038
1397.1743,100.05
1398.1385,100.025
1399.1028,99.9726
1400.0670,99.8986
1401.0313,99.8077
1401.9955,99.6994
1402.9597,99.5694
1403.9240,99.4108
1404.8882,99.2169
1405.8524,98.9857
1406.8167,98.7219
1407.7809,98.4283
1408.7451,98.0988
1409.7094,97.7213
1410.6736,97.2897
1411.6378,96.8147
1412.6021,96.3204
1413.5663,95.826
1414.5305,95.3309
1415.4948,94.8161
1416.4590,94.257
1417.4232,93.6433
1418.3875,93.0069
1419.3517,92.4286
1420.3159,91.9799
1421.2802,91.6661
1422.2444,91.4473
1423.2086,91.2859
1424.1729,91.1672
1425.1371,91.0947
1426.1013,91.0815
1427.0656,91.146
1428.0298,91.3071
1428.9940,91.5678
1429.9583,91.8967
1430.9225,92.2329
1431.8867,92.5201
1432.8510,92.737
1433.8152,92.8985
1434.7794,93.0319
1435.7437,93.1397
1436.7079,93.1816
1437.6721,93.1146
1438.6364,92.9344
1439.6006,92.6547
1440.5648,92.2804
1441.5291,91.8152
1442.4933,91.2739
1443.4575,90.6827
1444.4218,90.066
1445.3860,89.436
1446.3502,88.7961
1447.3145,88.1598
1448.2787,87.5638
1449.2429,87.0549
1450.2072,86.6554
1451.1714,86.3479
1452.1356,86.0937
1453.0999,85.8641
1454.0641,85.6612
1455.0283,85.517
1455.9926,85.4507
1456.9568,85.4049
1457.9210,85.318
1458.8853,85.2359
1459.8495,85.2023
1460.8137,85.2061
1461.7780,85.2495
1462.7422,85.3892
1463.7064,85.716
1464.6707,86.2738
1465.6349,86.9846
1466.5991,87.7006
1467.5634,88.3281
1468.5276,88.8692
1469.4918,89.3965
1470.4561,90.0219
1471.4203,90.8463
1472.3845,91.8476
1473.3488,92.8131
1474.3130,93.5276
1475.2772,93.9811
1476.2415,94.2738
1477.2057,94.4743
1478.1699,94.6029
1479.1342,94.6587
1480.0984,94.638
1481.0626,94.5406
1482.0269,94.3715
1482.9911,94.1416
1483.9553,93.8657
1484.9196,93.5585
1485.8838,93.2303
1486.8480,92.879
1487.8123,92.4792
1488.7765,91.9997
1489.7407,91.4659
1490.7050,90.965
1491.6692,90.548
1492.6334,90.1932
1493.5977,89.8545
1494.5619,89.5013
1495.5261,89.1258
1496.4904,88.7345
1497.4546,88.3466
1498.4188,87.9945
1499.3831,87.7013
1500.3473,87.453
1501.3115,87.2119
1502.2758,86.9463
1503.2400,86.6484
1504.2042,86.3338
1505.1685,86.0117
1506.1327,85.6097
1507.0969,85.0015
1508.0612,84.3116
1509.0254,83.8033
1509.9896,83.4915
1510.9539,83.2712
1511.9181,83.0926
1512.8823,82.9886
1513.8466,83.0468
1514.8108,83.3543
1515.7750,83.9312
1516.7393,84.708
1517.7035,85.5987
1518.6677,86.6073
1519.6320,87.837
1520.5962,89.3541
1521.5604,91.0304
1522.5247,92.5943
1523.4889,93.8655
1524.4531,94.8639
1525.4174,95.7071
1526.3816,96.4709
1527.3458,97.1449
1528.3101,97.6823
1529.2743,98.0668
1530.2385,98.3382
1531.2028,98.5726
1532.1670,98.8318
1533.1312,99.1055
1534.0955,99.3151
1535.0597,99.394
1536.0239,99.3417
1536.9882,99.2176
1537.9524,99.1295
1538.9166,99.2192
1539.8809,99.5465
1540.8451,99.8949
1541.8093,99.9882
1542.7736,99.8948
1543.7378,99.7819
1544.7020,99.7209
1545.6663,99.6771
1546.6305,99.6349
1547.5947,99.5866
1548.5590,99.5307
1549.5232,99.4677
1550.4874,99.3975
1551.4517,99.3171
1552.4159,99.2206
1553.3801,99.1021
1554.3444,98.9632
1555.3086,98.8254
1556.2728,98.7412
1557.2371,98.7553
1558.2013,98.7759
1559.1655,98.6377
1560.1298,98.4349
1561.0940,98.3133
1562.0582,98.2492
1563.0225,98.1714
1563.9867,98.0444
1564.9509,97.8709
1565.9152,97.6729
1566.8794,97.4702
1567.8436,97.2616
1568.8079,97.0288
1569.7721,96.767
1570.7363,96.4982
1571.7006,96.24
1572.6648,95.985
1573.6290,95.7103
1574.5933,95.3896
1575.5575,95.0005
1576.5217,94.5547
1577.4860,94.1174
1578.4502,93.7386
1579.4144,93.3983
1580.3787,93.0448
1581.3429,92.6471
1582.3071,92.2091
1583.2714,91.7593
1584.2356,91.3275
1585.1998,90.9268
1586.1641,90.5528
1587.1283,90.1976
1588.0925,89.8604
1589.0568,89.548
1590.0210,89.2666
1590.9852,89.0162
1591.9495,88.792
1592.9137,88.589
1593.8779,88.4038
1594.8422,88.2343
1595.8064,88.079
1596.7706,87.9372
1597.7349,87.8106
1598.6991,87.702
1599.6633,87.6135
1600.6276,87.5456
1601.5918,87.4982
1602.5560,87.4727
1603.5203,87.4716
1604.4845,87.4965
1605.4487,87.5477
1606.4130,87.6258
1607.3772,87.7341
1608.3414,87.8746
1609.3057,88.0396
1610.2699,88.21
1611.2341,88.3642
1612.1984,88.4955
1613.1626,88.6276
1614.1268,88.8228
1615.0911,89.1573
1616.0553,89.6465
1617.0195,90.1872
1617.9838,90.6483
1618.9480,90.9922
1619.9122,91.2634
1620.8765,91.5279
1621.8407,91.8361
1622.8049,92.1936
1623.7692,92.5517
1624.7334,92.8518
1625.6976,93.0805
1626.6619,93.2678
1627.6261,93.4444
1628.5903,93.612
1629.5546,93.7469
1630.5188,93.8245
1631.4830,93.8413
1632.4473,93.8251
1633.4115,93.8356
1634.3757,93.9363
1635.3400,94.1216
1636.3042,94.2899
1637.2684,94.3727
1638.2327,94.3985
1639.1969,94.4019
1640.1611,94.3854
1641.1254,94.34
1642.0896,94.2632
1643.0538,94.1689
1644.0181,94.089
1644.9823,94.0568
1645.9465,94.0648
1646.9108,94.0526
1647.8750,93.9765
1648.8392,93.844
1649.8035,93.6801
1650.7677,93.5232
1651.7319,93.4305
1652.6962,93.4144
1653.6604,93.3894
1654.6246,93.3323
1655.5889,93.3038
1656.5531,93.2991
1657.5173,93.2779
1658.4816,93.2229
1659.4458,93.1479
1660.4100,93.0798
1661.3743,93.0342
1662.3385,93.0024
1663.3027,92.9664
1664.2670,92.9186
1665.2312,92.8615
1666.1954,92.8043
1667.1597,92.7646
1668.1239,92.7583
1669.0881,92.778
1670.0524,92.7887
1671.0166,92.7644
1671.9808,92.7098
1672.9451,92.6432
1673.9093,92.5828
1674.8735,92.5428
1675.8378,92.5297
1676.8020,92.538
1677.7662,92.5507
1678.7305,92.5467
1679.6947,92.5142
1680.6589,92.4638
1681.6232,92.4303
1682.5874,92.4459
1683.5516,92.4898
1684.5159,92.5051
1685.4801,92.4921
1686.4443,92.4854
1687.4086,92.4881
1688.3728,92.4815
1689.3370,92.4503
1690.3013,92.3895
1691.2655,92.3022
1692.2297,92.1977
1693.1940,92.0904
1694.1582,91.9977
1695.1224,91.9329
1696.0867,91.8951
1697.0509,91.8633
1698.0151,91.8104
1698.9794,91.7307
1699.9436,91.6522
1700.9078,91.6102
1701.8721,91.614
1702.8363,91.6444
1703.8005,91.6742
1704.7648,91.6845
1705.7290,91.6698
1706.6932,91.6375
1707.6575,91.6016
1708.6217,91.5738
1709.5859,91.556
1710.5502,91.5435
1711.5144,91.5315
1712.4786,91.5224
1713.4429,91.5305
1714.4071,91.5838
1715.3713,91.708
1716.3356,91.8858
1717.2998,92.0499
1718.2640,92.1649
1719.2283,92.26
1720.1925,92.3649
1721.1567,92.4838
1722.1210,92.61
1723.0852,92.7363
1724.0494,92.8581
1725.0137,92.9749
1725.9779,93.0907
1726.9421,93.2094
1727.9064,93.3299
1728.8706,93.4454
1729.8348,93.5547
1730.7991,93.6754
1731.7633,93.8446
1732.7275,94.0884
1733.6918,94.3783
1734.6560,94.6517
1735.6202,94.8787
1736.5845,95.0702
1737.5487,95.25
1738.5129,95.4406
1739.4772,95.6556
1740.4414,95.8895
1741.4056,96.1197
1742.3699,96.3265
1743.3341,96.5064
1744.2983,96.6675
1745.2626,96.8185
1746.2268,96.9665
1747.1910,97.1187
1748.1553,97.28
1749.1195,97.4446
1750.0837,97.5964
1751.0480,97.7253
1752.0122,97.835
1752.9764,97.935
1753.9407,98.0327
1754.9049,98.1325
1755.8691,98.2341
1756.8334,98.3309
1757.7976,98.4156
1758.7618,98.4875
1759.7261,98.5554
1760.6903,98.6292
1761.6545,98.7095
1762.6188,98.787
1763.5830,98.8508
1764.5472,98.8977
1765.5115,98.9329
1766.4757,98.9664
1767.4399,99.0098
1768.4042,99.0735
1769.3684,99.165
1770.3326,99.2832
1771.2969,99.4117
1772.2611,99.5218
1773.2253,99.5954
1774.1896,99.6384
1775.1538,99.6662
1776.1180,99.6896
1777.0823,99.715
1778.0465,99.7471
1779.0107,99.7865
1779.9750,99.8273
1780.9392,99.8616
1781.9034,99.8867
1782.8677,99.9084
1783.8319,99.9335
1784.7961,99.9636
1785.7604,99.9922
1786.7246,100.01
1787.6888,100.013
1788.6531,100.007
1789.6173,100.011
1790.5815,100.043
1791.5458,100.101
1792.5100,100.163
1793.4742,100.203
1794.4385,100.219
1795.4027,100.22
1796.3669,100.214
1797.3312,100.208
1798.2954,100.209
1799.2596,100.219
1800.2239,100.236
1801.1881,100.25
1802.1523,100.258
1803.1166,100.259
1804.0808,100.256
1805.0450,100.251
1806.0093,100.247
1806.9735,100.247
1807.9377,100.255
1808.9020,100.272
1809.8662,100.294
1810.8304,100.314
1811.7947,100.324
1812.7589,100.323
1813.7231,100.315
1814.6874,100.303
1815.6516,100.293
1816.6158,100.287
1817.5801,100.285
1818.5443,100.281
1819.5085,100.272
1820.4728,100.257
1821.4370,100.24
1822.4012,100.226
1823.3655,100.218
1824.3297,100.217
1825.2939,100.219
1826.2582,100.223
1827.2224,100.23
1828.1866,100.239
1829.1509,100.245
1830.1151,100.239
1831.0793,100.218
1832.0436,100.191
1833.0078,100.164
1833.9720,100.142
1834.9363,100.125
1835.9005,100.113
1836.8647,100.098
1837.8290,100.075
1838.7932,100.039
1839.7574,99.9932
1840.7217,99.9484
1841.6859,99.9183
1842.6501,99.9218
1843.6144,99.9596
1844.5786,99.9994
1845.5428,100.024
1846.5071,100.033
1847.4713,100.031
1848.4355,100.025
1849.3998,100.016
1850.3640,100.009
1851.3282,100.003
1852.2925,99.999
1853.2567,99.9966
1854.2209,99.9948
1855.1852,99.9935
1856.1494,99.9923
1857.1136,99.9913
1858.0779,99.99
1859.0421,99.9886
1860.0063,99.9871
1860.9706,99.9861
1861.9348,99.9856
1862.8990,99.9862
1863.8633,99.9891
1864.8275,99.9982
1865.7917,100.019
1866.7560,100.053
1867.7202,100.09
1868.6844,100.113
1869.6487,100.112
1870.6129,100.094
1871.5771,100.073
1872.5414,100.055
1873.5056,100.044
1874.4698,100.038
1875.4341,100.037
1876.3983,100.039
1877.3625,100.04
1878.3268,100.041
1879.2910,100.043
1880.2552,100.045
1881.2195,100.05
1882.1837,100.053
1883.1479,100.052
1884.1122,100.047
1885.0764,100.04
1886.0406,100.036
1887.0049,100.039
1887.9691,100.052
1888.9333,100.069
1889.8976,100.083
1890.8618,100.091
1891.8260,100.092
1892.7903,100.091
1893.7545,100.091
1894.7188,100.092
1895.6830,100.093
1896.6472,100.092
1897.6115,100.088
1898.5757,100.084
1899.5399,100.081
1900.5042,100.082
1901.4684,100.084
1902.4326,100.087
1903.3969,100.087
1904.3611,100.087
1905.3253,100.089
1906.2896,100.094
1907.2538,100.104
1908.2180,100.117
1909.1823,100.128
1910.1465,100.132
1911.1107,100.126
1912.0750,100.113
1913.0392,100.097
1914.0034,100.083
1914.9677,100.076
1915.9319,100.078
1916.8961,100.086
1917.8604,100.094
1918.8246,100.1
1919.7888,100.106
1920.7531,100.114
1921.7173,100.124
1922.6815,100.134
1923.6458,100.139
1924.6100,100.135
1925.5742,100.122
1926.5385,100.106
1927.5027,100.092
1928.4669,100.081
1929.4312,100.076
1930.3954,100.074
1931.3596,100.072
1932.3239,100.069
1933.2881,100.066
1934.2523,100.064
1935.2166,100.063
1936.1808,100.062
1937.1450,100.06
1938.1093,100.058
1939.0735,100.06
1940.0377,100.066
1941.0020,100.08
1941.9662,100.096
1942.9304,100.109
1943.8947,100.114
1944.8589,100.11
1945.8231,100.102
1946.7874,100.092
1947.7516,100.082
1948.7158,100.075
1949.6801,100.07
1950.6443,100.066
1951.6085,100.064
1952.5728,100.064
1953.5370,100.065
1954.5012,100.066
1955.4655,100.067
1956.4297,100.067
1957.3939,100.067
1958.3582,100.069
1959.3224,100.072
1960.2866,100.077
1961.2509,100.081
1962.2151,100.085
1963.1793,100.089
1964.1436,100.095
1965.1078,100.104
1966.0720,100.112
1967.0363,100.118
1968.0005,100.117
1968.9647,100.112
1969.9290,100.104
1970.8932,100.098
1971.8574,100.094
1972.8217,100.094
1973.7859,100.095
1974.7501,100.095
1975.7144,100.095
1976.6786,100.094
1977.6428,100.094
1978.6071,100.096
1979.5713,100.097
1980.5355,100.096
1981.4998,100.093
1982.4640,100.089
1983.4282,100.088
1984.3925,100.09
1985.3567,100.097
1986.3209,100.106
1987.2852,100.113
1988.2494,100.118
1989.2136,100.121
1990.1779,100.122
1991.1421,100.122
1992.1063,100.122
1993.0706,100.119
1994.0348,100.114
1994.9990,100.108
1995.9633,100.105
1996.9275,100.103
1997.8917,100.104
1998.8560,100.105
1999.8202,100.104
2000.7844,100.101
2001.7487,100.095
2002.7129,100.089
2003.6771,100.084
2004.6414,100.081
2005.6056,100.081
2006.5698,100.081
2007.5341,100.081
2008.4983,100.079
2009.4625,100.073
2010.4268,100.064
2011.3910,100.057
2012.3552,100.053
2013.3195,100.055
2014.2837,100.064
2015.2479,100.077
2016.2122,100.089
2017.1764,100.095
2018.1406,100.094
2019.1049,100.086
2020.0691,100.076
2021.0333,100.067
2021.9976,100.06
2022.9618,100.056
2023.9260,100.053
2024.8903,100.049
2025.8545,100.043
2026.8187,100.036
2027.7830,100.029
2028.7472,100.024
2029.7114,100.023
2030.6757,100.025
2031.6399,100.029
2032.6041,100.033
2033.5684,100.035
2034.5326,100.033
2035.4968,100.029
2036.4611,100.024
2037.4253,100.02
2038.3895,100.018
2039.3538,100.019
2040.3180,100.02
2041.2822,100.02
2042.2465,100.018
2043.2107,100.013
2044.1749,100.008
2045.1392,100.002
2046.1034,99.996
2047.0676,99.9903
2048.0320,99.9848
2048.9961,99.9804
2049.9604,99.9778
2050.9246,99.9775
2051.8889,99.9788
2052.8530,99.9805
2053.8174,99.9809
2054.7815,99.9791
2055.7458,99.9757
2056.7100,99.9717
2057.6743,99.9688
2058.6384,99.9677
2059.6028,99.9688
2060.5669,99.9716
2061.5313,99.976
2062.4954,99.9816
2063.4597,99.9876
2064.4238,99.9925
2065.3882,99.9944
2066.3523,99.9917
2067.3167,99.9848
2068.2808,99.9754
2069.2451,99.9669
2070.2092,99.9618
2071.1736,99.9615
2072.1377,99.9649
2073.1021,99.9697
2074.0662,99.9732
2075.0305,99.974
2075.9946,99.9718
2076.9590,99.968
2077.9231,99.9639
2078.8875,99.9606
2079.8516,99.9589
2080.8159,99.9592
2081.7800,99.9617
2082.7444,99.9662
2083.7085,99.9722
2084.6729,99.9784
2085.6370,99.9835
2086.6013,99.9863
2087.5654,99.9865
2088.5298,99.9845
2089.4939,99.9815
2090.4583,99.9783
2091.4224,99.9755
2092.3867,99.9729
2093.3508,99.9704
2094.3152,99.9675
2095.2793,99.9642
2096.2437,99.9603
2097.2078,99.9562
2098.1721,99.9528
2099.1362,99.9513
2100.1006,99.9529
2101.0647,99.9571
2102.0291,99.9626
2102.9932,99.9671
2103.9575,99.9682
2104.9216,99.965
2105.8860,99.9585
2106.8501,99.951
2107.8145,99.9451
2108.7786,99.9423
2109.7429,99.9423
2110.7070,99.9442
2111.6714,99.9461
2112.6355,99.9467
2113.5999,99.9453
2114.5640,99.942
2115.5283,99.9373
2116.4924,99.9327
2117.4568,99.9295
2118.4209,99.9287
2119.3853,99.9304
2120.3494,99.9335
2121.3137,99.9366
2122.2778,99.9379
2123.2422,99.9369
2124.2063,99.9337
2125.1707,99.9291
2126.1348,99.924
2127.0991,99.9189
2128.0632,99.914
2129.0276,99.9092
2129.9917,99.9046
2130.9561,99.901
2131.9202,99.8995
2132.8845,99.9015
2133.8486,99.9073
2134.8130,99.9157
2135.7771,99.9238
2136.7415,99.9284
2137.7056,99.9272
2138.6699,99.9208
2139.6340,99.9118
2140.5984,99.9038
2141.5625,99.8994
2142.5269,99.8986
2143.4910,99.8997
2144.4553,99.9003
2145.4194,99.8993
2146.3838,99.8973
2147.3479,99.8961
2148.3123,99.8969
2149.2764,99.8994
2150.2407,99.9024
2151.2048,99.9041
2152.1692,99.9036
2153.1333,99.9012
2154.0977,99.8979
2155.0618,99.8951
2156.0261,99.8939
2156.9902,99.8948
2157.9546,99.8979
2158.9187,99.9024
2159.8831,99.9074
2160.8472,99.9116
2161.8115,99.9144
2162.7756,99.9155
2163.7400,99.9157
2164.7041,99.9158
2165.6685,99.9167
2166.6326,99.9185
2167.5969,99.9207
2168.5610,99.9221
2169.5254,99.9218
2170.4895,99.9197
2171.4539,99.9167
2172.4180,99.9141
2173.3823,99.9133
2174.3464,99.9145
2175.3108,99.9169
2176.2749,99.9189
2177.2393,99.9196
2178.2034,99.9188
2179.1677,99.9176
2180.1318,99.9175
2181.0962,99.9192
2182.0603,99.9224
2183.0247,99.9259
2183.9888,99.928
2184.9531,99.9273
2185.9172,99.9237
2186.8816,99.9179
2187.8457,99.9121
2188.8101,99.9084
2189.7742,99.9086
2190.7385,99.9129
2191.7026,99.9198
2192.6670,99.9266
2193.6311,99.9306
2194.5955,99.9304
2195.5596,99.9265
2196.5239,99.9209
2197.4880,99.916
2198.4524,99.9131
2199.4165,99.9122
2200.3809,99.9123
2201.3450,99.9124
2202.3093,99.912
2203.2734,99.9111
2204.2378,99.9099
2205.2019,99.9085
2206.1663,99.9064
2207.1304,99.9038
2208.0947,99.9013
2209.0588,99.8996
2210.0232,99.8991
2210.9873,99.8993
2211.9517,99.8985
2212.9158,99.8948
2213.8801,99.8879
2214.8442,99.8793
2215.8086,99.8719
2216.7727,99.8683
2217.7371,99.8698
2218.7012,99.8751
2219.6655,99.881
2220.6296,99.8844
2221.5940,99.8831
2222.5581,99.8771
2223.5225,99.8678
2224.4866,99.8576
2225.4509,99.8484
2226.4150,99.841
2227.3794,99.8355
2228.3435,99.8317
2229.3079,99.8292
2230.2720,99.828
2231.2363,99.8283
2232.2004,99.8296
2233.1648,99.8309
2234.1289,99.8305
2235.0933,99.827
2236.0574,99.8188
2237.0217,99.8048
2237.9858,99.7902
2238.9502,99.7773
2239.9143,99.7678
2240.8787,99.7617
2241.8428,99.7579
2242.8071,99.7545
2243.7712,99.75
2244.7356,99.7437
2245.6997,99.736
2246.6641,99.7273
2247.6282,99.7178
2248.5925,99.7076
2249.5566,99.6964
2250.5210,99.6844
2251.4851,99.6721
2252.4495,99.66
2253.4136,99.6482
2254.3779,99.6368
2255.3420,99.6257
2256.3064,99.6154
2257.2705,99.6065
2258.2349,99.5995
2259.1990,99.5943
2260.1633,99.5896
2261.1274,99.5837
2262.0918,99.5755
2263.0559,99.5645
2264.0203,99.552
2264.9844,99.5396
2265.9487,99.5285
2266.9128,99.5192
2267.8772,99.5108
2268.8413,99.5022
2269.8057,99.4922
2270.7698,99.4809
2271.7341,99.4691
2272.6982,99.4583
2273.6626,99.4497
2274.6267,99.4439
2275.5911,99.4403
2276.5552,99.4376
2277.5195,99.4343
2278.4836,99.4291
2279.4480,99.4218
2280.4121,99.4124
2281.3765,99.4008
2282.3406,99.3864
2283.3049,99.3681
2284.2690,99.3449
2285.2334,99.3162
2286.1975,99.2825
2287.1619,99.2451
2288.1260,99.2057
2289.0903,99.166
2290.0544,99.1268
2291.0188,99.0884
2291.9829,99.0504
2292.9473,99.012
2293.9114,98.9724
2294.8757,98.9311
2295.8398,98.8879
2296.8042,98.843
2297.7683,98.7966
2298.7327,98.7485
2299.6968,98.6979
2300.6611,98.6436
2301.6252,98.5838
2302.5896,98.5174
2303.5537,98.4441
2304.5181,98.3654
2305.4822,98.2837
2306.4465,98.2024
2307.4106,98.1238
2308.3750,98.0492
2309.3391,97.9776
2310.3035,97.9073
2311.2676,97.8363
2312.2319,97.7632
2313.1960,97.6873
2314.1604,97.6083
2315.1245,97.5261
2316.0889,97.4418
2317.0530,97.3578
2318.0173,97.2781
2318.9814,97.2077
2319.9458,97.1502
2320.9099,97.1073
2321.8743,97.0797
2322.8384,97.0683
2323.8027,97.0743
2324.7668,97.0974
2325.7312,97.1344
2326.6953,97.1782
2327.6597,97.2197
2328.6238,97.2516
2329.5881,97.2711
2330.5522,97.2813
2331.5166,97.288
2332.4807,97.2945
2333.4451,97.2998
2334.4092,97.3007
2335.3735,97.2977
2336.3376,97.2969
2337.3020,97.3072
2338.2661,97.3349
2339.2305,97.3801
2340.1946,97.4346
2341.1589,97.48
2342.1230,97.4862
2343.0874,97.4272
2344.0515,97.3177
2345.0159,97.2165
2345.9800,97.1673
2346.9443,97.1593
2347.9084,97.1506
2348.8728,97.11
2349.8369,97.0401
2350.8013,96.9819
2351.7654,97.0035
2352.7297,97.1674
2353.6938,97.4849
2354.6582,97.9011
2355.6223,98.3448
2356.5867,98.7851
2357.5508,99.2163
2358.5151,99.6054
2359.4792,99.8831
2360.4436,99.9909
2361.4077,99.921
2362.3721,99.706
2363.3362,99.3882
2364.3005,99.0229
2365.2646,98.6467
2366.2290,98.2828
2367.1931,97.9553
2368.1575,97.676
2369.1216,97.4492
2370.0859,97.2789
2371.0500,97.1707
2372.0144,97.1297
2372.9785,97.1567
2373.9429,97.2462
2374.9070,97.3864
2375.8713,97.5612
2376.8354,97.7544
2377.7998,97.953
2378.7639,98.1487
2379.7283,98.3372
2380.6924,98.516
2381.6567,98.6822
2382.6208,98.8323
2383.5852,98.9629
2384.5493,99.0718
2385.5137,99.1596
2386.4778,99.2289
2387.4421,99.2833
2388.4063,99.3265
2389.3706,99.3608
2390.3347,99.388
2391.2991,99.4097
2392.2632,99.4286
2393.2275,99.4477
2394.1917,99.4701
2395.1560,99.4967
2396.1201,99.526
2397.0845,99.5544
2398.0486,99.5783
2399.0129,99.5959
2399.9771,99.6083
2400.9414,99.619
2401.9055,99.632
2402.8699,99.6498
2403.8340,99.6723
2404.7983,99.6974
2405.7625,99.7226
2406.7268,99.7464
2407.6909,99.7687
2408.6553,99.7901
2409.6194,99.8112
2410.5837,99.8315
2411.5479,99.8504
2412.5122,99.8621
2413.4763,99.8582
2414.4407,99.8539
2415.4048,99.8496
2416.3691,99.8456
2417.3333,99.8421
2418.2976,99.8397
2419.2617,99.8387
2420.2261,99.8393
2421.1902,99.8405
2422.1545,99.8409
2423.1187,99.8396
2424.0830,99.8368
2425.0471,99.8341
2426.0115,99.8334
2426.9756,99.8352
2427.9399,99.8384
2428.9041,99.8407
2429.8684,99.84
2430.8325,99.8359
2431.7969,99.8297
2432.7610,99.8239
2433.7253,99.8207
2434.6895,99.8211
2435.6538,99.8246
2436.6179,99.8297
2437.5823,99.8348
2438.5464,99.8384
2439.5107,99.8401
2440.4749,99.8403
2441.4392,99.8404
2442.4033,99.8417
2443.3677,99.8449
2444.3318,99.8495
2445.2961,99.854
2446.2603,99.8566
2447.2246,99.8563
2448.1887,99.8538
2449.1531,99.8508
2450.1172,99.8494
2451.0815,99.8503
2452.0457,99.8529
2453.0100,99.8555
2453.9741,99.8561
2454.9385,99.8542
2455.9026,99.8499
2456.8669,99.8447
2457.8311,99.84
2458.7954,99.8371
2459.7595,99.8364
2460.7239,99.8376
2461.6880,99.8398
2462.6523,99.8415
2463.6165,99.8416
2464.5808,99.8397
2465.5449,99.837
2466.5093,99.8354
2467.4734,99.8361
2468.4377,99.8392
2469.4019,99.843
2470.3662,99.8448
2471.3303,99.8427
2472.2947,99.837
2473.2588,99.8298
2474.2231,99.8239
2475.1873,99.8212
2476.1516,99.8222
2477.1157,99.8254
2478.0801,99.8292
2479.0442,99.8327
2480.0085,99.8359
2480.9727,99.8395
2481.9370,99.8438
2482.9011,99.8483
2483.8655,99.8523
2484.8296,99.8549
2485.7939,99.8562
2486.7581,99.8567
2487.7224,99.857
2488.6865,99.857
2489.6509,99.8562
2490.6150,99.8539
2491.5793,99.8504
2492.5435,99.847
2493.5078,99.8451
2494.4719,99.8449
2495.4363,99.8457
2496.4004,99.8456
2497.3647,99.8433
2498.3289,99.8392
2499.2932,99.8356
2500.2573,99.8351
2501.2217,99.8387
2502.1858,99.845
2503.1501,99.8511
2504.1143,99.854
2505.0786,99.8525
2506.0427,99.8483
2507.0071,99.8446
2507.9712,99.8441
2508.9355,99.8476
2509.8997,99.8537
2510.8640,99.8597
2511.8281,99.8635
2512.7925,99.8643
2513.7566,99.863
2514.7209,99.8611
2515.6851,99.86
2516.6494,99.8605
2517.6135,99.8631
2518.5779,99.868
2519.5420,99.875
2520.5063,99.8832
2521.4705,99.8904
2522.4348,99.8942
2523.3989,99.8926
2524.3633,99.8858
2525.3274,99.8763
2526.2917,99.8681
2527.2559,99.8645
2528.2202,99.8673
2529.1843,99.8754
2530.1487,99.8862
2531.1128,99.8964
2532.0771,99.9038
2533.0413,99.9071
2534.0056,99.9065
2534.9697,99.9031
2535.9341,99.8986
2536.8982,99.8951
2537.8625,99.8943
2538.8267,99.8967
2539.7910,99.9014
2540.7551,99.9067
2541.7195,99.9107
2542.6836,99.9128
2543.6479,99.9132
2544.6121,99.9127
2545.5764,99.9123
2546.5405,99.9122
2547.5049,99.9124
2548.4690,99.9128
2549.4333,99.9136
2550.3975,99.9146
2551.3618,99.9157
2552.3259,99.9164
2553.2903,99.9166
2554.2544,99.9163
2555.2188,99.9161
2556.1829,99.9165
2557.1472,99.9179
2558.1113,99.92
2559.0757,99.9223
2560.0398,99.9246
2561.0042,99.9267
2561.9683,99.9281
2562.9326,99.9283
2563.8967,99.9266
2564.8611,99.9233
2565.8252,99.9197
2566.7896,99.918
2567.7537,99.9205
2568.7180,99.9278
2569.6821,99.9388
2570.6465,99.9507
2571.6106,99.9602
2572.5750,99.9653
2573.5391,99.9659
2574.5034,99.9636
2575.4675,99.9602
2576.4319,99.9572
2577.3960,99.9545
2578.3604,99.9513
2579.3245,99.9467
2580.2888,99.9412
2581.2529,99.9363
2582.2173,99.9341
2583.1814,99.9356
2584.1458,99.9402
2585.1099,99.9458
2586.0742,99.9496
2587.0383,99.95
2588.0027,99.9472
2588.9668,99.9431
2589.9312,99.9405
2590.8953,99.9412
2591.8596,99.9453
2592.8237,99.9516
2593.7881,99.958
2594.7522,99.9631
2595.7166,99.9662
2596.6807,99.9681
2597.6450,99.9698
2598.6091,99.9722
2599.5735,99.9756
2600.5376,99.98
2601.5020,99.9849
2602.4661,99.9899
2603.4304,99.9943
2604.3945,99.9969
2605.3589,99.9964
2606.3230,99.9924
2607.2874,99.9858
2608.2515,99.9792
2609.2158,99.9755
2610.1799,99.9765
2611.1443,99.9817
2612.1084,99.9885
2613.0728,99.9941
2614.0369,99.9971
2615.0012,99.9981
2615.9653,99.9992
2616.9297,100.002
2617.8938,100.007
2618.8582,100.013
2619.8223,100.017
2620.7866,100.02
2621.7507,100.02
2622.7151,100.018
2623.6792,100.015
2624.6436,100.01
2625.6077,100.003
2626.5720,99.9968
2627.5361,99.9922
2628.5005,99.9908
2629.4646,99.9928
2630.4290,99.9967
2631.3931,100.001
2632.3574,100.004
2633.3215,100.006
2634.2859,100.008
2635.2500,100.01
2636.2144,100.014
2637.1785,100.017
2638.1428,100.019
2639.1069,100.018
2640.0713,100.018
2641.0354,100.017
2641.9998,100.019
2642.9639,100.022
2643.9282,100.026
2644.8923,100.031
2645.8567,100.035
2646.8208,100.038
2647.7852,100.041
2648.7493,100.043
2649.7136,100.044
2650.6777,100.044
2651.6421,100.041
2652.6062,100.036
2653.5706,100.031
2654.5347,100.028
2655.4990,100.029
2656.4631,100.034
2657.4275,100.041
2658.3916,100.047
2659.3560,100.051
2660.3201,100.051
2661.2844,100.05
2662.2485,100.049
2663.2129,100.049
2664.1770,100.05
2665.1414,100.049
2666.1055,100.047
2667.0698,100.046
2668.0339,100.048
2668.9983,100.054
2669.9624,100.063
2670.9268,100.071
2671.8909,100.075
2672.8552,100.074
2673.8193,100.07
2674.7837,100.067
2675.7478,100.068
2676.7122,100.072
2677.6763,100.079
2678.6406,100.084
2679.6047,100.086
2680.5691,100.085
2681.5332,100.084
2682.4976,100.083
2683.4617,100.082
2684.4260,100.081
2685.3901,100.077
2686.3545,100.071
2687.3186,100.062
2688.2830,100.054
2689.2471,100.047
2690.2114,100.043
2691.1755,100.044
2692.1399,100.048
2693.1040,100.054
2694.0684,100.061
2695.0325,100.066
2695.9968,100.068
2696.9609,100.066
2697.9253,100.062
2698.8894,100.055
2699.8538,100.046
2700.8179,100.036
2701.7822,100.029
2702.7463,100.024
2703.7107,100.024
2704.6748,100.026
2705.6392,100.029
2706.6033,100.028
2707.5676,100.022
2708.5317,100.013
2709.4961,100.005
2710.4602,100.001
2711.4246,100.002
2712.3887,100.007
2713.3530,100.011
2714.3171,100.011
2715.2815,100.007
2716.2456,99.9995
2717.2100,99.9916
2718.1741,99.986
2719.1384,99.9841
2720.1025,99.9855
2721.0669,99.9883
2722.0310,99.9897
2722.9954,99.9873
2723.9595,99.9796
2724.9238,99.9673
2725.8879,99.9529
2726.8523,99.94
2727.8164,99.9317
2728.7808,99.9293
2729.7449,99.9324
2730.7092,99.9387
2731.6733,99.946
2732.6377,99.9527
2733.6018,99.9575
2734.5662,99.96
2735.5303,99.9602
2736.4946,99.9585
2737.4587,99.956
2738.4231,99.9535
2739.3872,99.9519
2740.3516,99.9511
2741.3157,99.9509
2742.2800,99.9514
2743.2441,99.9534
2744.2085,99.9578
2745.1726,99.9649
2746.1370,99.9734
2747.1011,99.9806
2748.0654,99.9841
2749.0295,99.9831
2749.9939,99.979
2750.9580,99.9748
2751.9224,99.9734
2752.8865,99.9753
2753.8508,99.9788
2754.8149,99.981
2755.7793,99.98
2756.7434,99.9762
2757.7078,99.9725
2758.6719,99.9718
2759.6362,99.9759
2760.6003,99.9836
2761.5647,99.9919
2762.5288,99.9977
2763.4932,100
2764.4573,100
2765.4216,100.001
2766.3857,100.004
2767.3501,100.011
2768.3142,100.017
2769.2786,100.019
2770.2427,100.015
2771.2070,100.003
2772.1711,99.985
2773.1355,99.9657
2774.0996,99.9491
2775.0640,99.9385
2776.0281,99.9352
2776.9924,99.9382
2777.9565,99.945
2778.9209,99.9523
2779.8850,99.9576
2780.8494,99.9594
2781.8135,99.9577
2782.7778,99.9537
2783.7419,99.9482
2784.7063,99.9415
2785.6704,99.933
2786.6348,99.9218
2787.5989,99.9072
2788.5632,99.8894
2789.5273,99.8698
2790.4917,99.8507
2791.4558,99.835
2792.4202,99.825
2793.3843,99.8216
2794.3486,99.8238
2795.3127,99.8278
2796.2771,99.8292
2797.2412,99.8246
2798.2056,99.8103
2799.1697,99.7875
2800.1340,99.7603
2801.0981,99.734
2802.0625,99.7128
2803.0266,99.6986
2803.9910,99.6905
2804.9551,99.6858
2805.9194,99.6808
2806.8835,99.6717
2807.8479,99.6556
2808.8120,99.6311
2809.7764,99.5986
2810.7405,99.5608
2811.7048,99.5213
2812.6689,99.4834
2813.6333,99.4485
2814.5974,99.4157
2815.5618,99.3825
2816.5259,99.3461
2817.4902,99.3047
2818.4543,99.2574
2819.4187,99.2043
2820.3828,99.1449
2821.3472,99.0786
2822.3113,99.0045
2823.2756,98.9219
2824.2397,98.8302
2825.2041,98.7292
2826.1682,98.6187
2827.1326,98.4989
2828.0967,98.3712
2829.0610,98.2383
2830.0251,98.1036
2830.9895,97.9708
2831.9536,97.8427
2832.9180,97.721
2833.8821,97.6065
2834.8464,97.4999
2835.8105,97.4022
2836.7749,97.3152
2837.7390,97.2413
2838.7034,97.1831
2839.6675,97.1434
2840.6318,97.1241
2841.5959,97.125
2842.5603,97.1436
2843.5244,97.1754
2844.4888,97.2156
2845.4529,97.2617
2846.4172,97.3142
2847.3813,97.376
2848.3457,97.4495
2849.3098,97.5338
2850.2742,97.6234
2851.2383,97.7101
2852.2026,97.7855
2853.1667,97.8445
2854.1311,97.8852
2855.0952,97.909
2856.0596,97.918
2857.0237,97.915
2857.9880,97.9026
2858.9521,97.8845
2859.9165,97.864
2860.8806,97.8439
2861.8450,97.8248
2862.8091,97.8054
2863.7734,97.7838
2864.7375,97.7591
2865.7019,97.7325
2866.6660,97.7068
2867.6304,97.6843
2868.5945,97.6653
2869.5588,97.6474
2870.5229,97.6269
2871.4873,97.601
2872.4514,97.5699
2873.4158,97.537
2874.3799,97.5078
2875.3442,97.4873
2876.3083,97.4772
2877.2727,97.4758
2878.2368,97.4779
2879.2012,97.4778
2880.1653,97.471
2881.1296,97.456
2882.0938,97.4343
2883.0581,97.4093
2884.0222,97.3846
2884.9866,97.3629
2885.9507,97.3449
2886.9150,97.3298
2887.8792,97.3157
2888.8435,97.3005
2889.8076,97.2828
2890.7720,97.2612
2891.7361,97.235
2892.7004,97.2039
2893.6646,97.1688
2894.6289,97.1319
2895.5930,97.096
2896.5574,97.0633
2897.5215,97.0342
2898.4858,97.0065
2899.4500,96.9762
2900.4143,96.9396
2901.3784,96.8958
2902.3428,96.8473
2903.3069,96.7998
2904.2712,96.7601
2905.2354,96.7331
2906.1997,96.7208
2907.1638,96.7212
2908.1282,96.7293
2909.0923,96.738
2910.0566,96.7404
2911.0208,96.7323
2911.9851,96.7125
2912.9492,96.6834
2913.9136,96.6488
2914.8777,96.6122
2915.8420,96.5754
2916.8062,96.5388
2917.7705,96.5019
2918.7346,96.4642
2919.6990,96.4254
2920.6631,96.3849
2921.6274,96.3417
2922.5916,96.294
2923.5559,96.2393
2924.5200,96.175
2925.4844,96.0977
2926.4485,96.0044
2927.4128,95.8938
2928.3770,95.7682
2929.3413,95.634
2930.3054,95.5013
2931.2698,95.3809
2932.2339,95.2809
2933.1982,95.2048
2934.1624,95.1519
2935.1267,95.1189
2936.0908,95.1029
2937.0552,95.1026
2938.0193,95.1181
2938.9836,95.1506
2939.9478,95.2003
2940.9121,95.2665
2941.8762,95.3471
2942.8406,95.4394
2943.8047,95.5403
2944.7690,95.6468
2945.7332,95.7561
2946.6975,95.8654
2947.6616,95.9721
2948.6260,96.0733
2949.5901,96.1661
2950.5544,96.2487
2951.5186,96.3201
2952.4829,96.3813
2953.4470,96.4341
2954.4114,96.4812
2955.3755,96.5242
2956.3398,96.5641
2957.3040,96.6001
2958.2683,96.6314
2959.2324,96.6572
2960.1968,96.6783
2961.1609,96.6962
2962.1252,96.7132
2963.0894,96.7302
2964.0537,96.7467
2965.0178,96.7606
2965.9822,96.7701
2966.9463,96.7757
2967.9106,96.7811
2968.8748,96.7917
2969.8391,96.8125
2970.8032,96.8457
2971.7676,96.8899
2972.7317,96.942
2973.6960,96.9995
2974.6602,97.0624
2975.6245,97.132
2976.5886,97.2093
2977.5530,97.2929
2978.5171,97.3787
2979.4814,97.4624
2980.4456,97.5418
2981.4099,97.6181
2982.3740,97.6954
2983.3384,97.7773
2984.3025,97.8652
2985.2668,97.9565
2986.2310,98.0464
2987.1953,98.1291
2988.1594,98.2011
2989.1238,98.2615
2990.0879,98.3122
2991.0522,98.356
2992.0164,98.3958
2992.9807,98.4331
2993.9448,98.4686
2994.9092,98.5023
2995.8733,98.5345
2996.8376,98.5661
2997.8018,98.5988
2998.7661,98.6342
2999.7302,98.6735
3000.6946,98.7164
3001.6587,98.7613
3002.6230,98.8064
3003.5872,98.8505
3004.5515,98.8945
3005.5156,98.9412
3006.4800,98.9938
3007.4441,99.0541
3008.4084,99.1212
3009.3726,99.1913
3010.3369,99.2596
3011.3010,99.322
3012.2654,99.3767
3013.2295,99.4241
3014.1938,99.4659
3015.1580,99.5035
3016.1223,99.5385
3017.0864,99.5723
3018.0508,99.6065
3019.0149,99.6423
3019.9792,99.6794
3020.9434,99.7156
3021.9077,99.7477
3022.8718,99.7732
3023.8362,99.7928
3024.8003,99.8103
3025.7646,99.8207
3026.7288,99.8394
3027.6931,99.8685
3028.6572,99.9045
3029.6216,99.9403
3030.5857,99.9673
3031.5500,99.9797
3032.5142,99.9765
3033.4785,99.9627
3034.4426,99.947
3035.4070,99.9375
3036.3711,99.9389
3037.3354,99.9501
3038.2996,99.9655
3039.2639,99.9779
3040.2280,99.9816
3041.1924,99.9751
3042.1565,99.9608
3043.1208,99.9436
3044.0850,99.9284
3045.0493,99.9185
3046.0134,99.9147
3046.9778,99.9157
3047.9419,99.9183
3048.9063,99.9186
3049.8704,99.9133
3050.8347,99.9008
3051.7988,99.882
3052.7632,99.8599
3053.7273,99.8383
3054.6917,99.8194
3055.6558,99.8036
3056.6201,99.7892
3057.5842,99.7746
3058.5486,99.7598
3059.5127,99.7465
3060.4771,99.737
3061.4412,99.7324
3062.4055,99.7311
3063.3696,99.7293
3064.3340,99.7225
3065.2981,99.7079
3066.2625,99.6858
3067.2266,99.6593
3068.1909,99.633
3069.1550,99.6105
3070.1194,99.5936
3071.0835,99.5827
3072.0479,99.5774
3073.0120,99.5773
3073.9763,99.582
3074.9404,99.5902
3075.9048,99.5997
3076.8689,99.6075
3077.8333,99.6108
3078.7974,99.6088
3079.7617,99.6022
3080.7258,99.5932
3081.6902,99.5833
3082.6543,99.5738
3083.6187,99.5652
3084.5828,99.5583
3085.5471,99.5535
3086.5112,99.5503
3087.4756,99.5462
3088.4397,99.5382
3089.4041,99.5245
3090.3682,99.5072
3091.3325,99.4916
3092.2966,99.4837
3093.2610,99.4865
3094.2251,99.4972
3095.1895,99.5092
3096.1536,99.5155
3097.1179,99.5127
3098.0820,99.5018
3099.0464,99.4866
3100.0105,99.4701
3100.9749,99.453
3101.9390,99.4348
3102.9033,99.4152
3103.8674,99.3955
3104.8318,99.3777
3105.7959,99.3625
3106.7603,99.3489
3107.7244,99.335
3108.6887,99.3194
3109.6528,99.303
3110.6172,99.2875
3111.5813,99.2748
3112.5457,99.265
3113.5098,99.2572
3114.4741,99.2502
3115.4382,99.2441
3116.4026,99.2393
3117.3667,99.2359
3118.3311,99.232
3119.2952,99.2248
3120.2595,99.2117
3121.2236,99.1924
3122.1880,99.1689
3123.1521,99.1439
3124.1165,99.1193
3125.0806,99.0952
3126.0449,99.0712
3127.0090,99.048
3127.9734,99.0285
3128.9375,99.0168
3129.9019,99.0152
3130.8660,99.0223
3131.8303,99.0329
3132.7944,99.0401
3133.7588,99.0387
3134.7229,99.0272
3135.6873,99.008
3136.6514,98.9849
3137.6157,98.961
3138.5798,98.9377
3139.5442,98.9147
3140.5083,98.8917
3141.4727,98.8688
3142.4368,98.847
3143.4011,98.8281
3144.3652,98.8139
3145.3296,98.8056
3146.2937,98.8031
3147.2581,98.8045
3148.2222,98.8064
3149.1865,98.805
3150.1506,98.797
3151.1150,98.7812
3152.0791,98.7581
3153.0435,98.7298
3154.0076,98.6987
3154.9719,98.6669
3155.9360,98.6364
3156.9004,98.6086
3157.8645,98.5842
3158.8289,98.5633
3159.7930,98.5449
3160.7573,98.5285
3161.7214,98.5143
3162.6858,98.5037
3163.6499,98.4975
3164.6143,98.4949
3165.5784,98.4925
3166.5427,98.486
3167.5068,98.4721
3168.4712,98.4503
3169.4353,98.3434
3170.3997,98.3154
3171.3638,98.2903
3172.3281,98.2693
3173.2922,98.2523
3174.2566,98.2385
3175.2207,98.2272
3176.1851,98.217
3177.1492,98.2054
3178.1135,98.1897
3179.0776,98.1685
3180.0420,98.1428
3181.0061,98.1156
3181.9705,98.0908
3182.9346,98.0704
3183.8989,98.0546
3184.8630,98.0418
3185.8274,98.0308
3186.7915,98.0211
3187.7559,98.0126
3188.7200,98.0041
3189.6843,97.9926
3190.6484,97.974
3191.6128,97.9457
3192.5769,97.9085
3193.5413,97.8669
3194.5054,97.8276
3195.4697,97.7962
3196.4338,97.7757
3197.3982,97.7653
3198.3623,97.7622
3199.3267,97.7633
3200.2908,97.7655
3201.2551,97.7661
3202.2192,97.7618
3203.1836,97.7489
3204.1477,97.7251
3205.1121,97.6912
3206.0762,97.6523
3207.0405,97.6162
3208.0046,97.5904
3208.9690,97.578
3209.9331,97.5766
3210.8975,97.5795
3211.8616,97.579
3212.8259,97.5707
3213.7900,97.5544
3214.7544,97.5338
3215.7185,97.5136
3216.6829,97.4966
3217.6470,97.4831
3218.6113,97.4712
3219.5754,97.4578
3220.5398,97.4402
3221.5039,97.4164
3222.4683,97.3861
3223.4324,97.3508
3224.3967,97.3149
3225.3608,97.2853
3226.3252,97.2693
3227.2893,97.2714
3228.2537,97.2899
3229.2178,97.3169
3230.1821,97.34
3231.1462,97.3484
3232.1106,97.3368
3233.0747,97.3075
3234.0391,97.2677
3235.0032,97.2253
3235.9675,97.1853
3236.9316,97.1494
3237.8960,97.1182
3238.8601,97.0933
3239.8245,97.0779
3240.7886,97.0737
3241.7529,97.079
3242.7170,97.0872
3243.6814,97.0894
3244.6455,97.0789
3245.6099,97.0547
3246.5740,97.0216
3247.5383,96.9868
3248.5024,96.9565
3249.4668,96.9334
3250.4309,96.9178
3251.3953,96.9083
3252.3594,96.9025
3253.3237,96.8967
3254.2878,96.8857
3255.2522,96.8649
3256.2163,96.8328
3257.1807,96.792
3258.1448,96.7492
3259.1091,96.7115
3260.0732,96.6832
3261.0376,96.6639
3262.0017,96.65
3262.9661,96.6368
3263.9302,96.6219
3264.8945,96.6059
3265.8586,96.5912
3266.8230,96.5794
3267.7871,96.5712
3268.7515,96.5648
3269.7156,96.5581
3270.6799,96.5491
3271.6440,96.5368
3272.6084,96.5217
3273.5725,96.5047
3274.5369,96.4871
3275.5010,96.4693
3276.4653,96.451
3277.4294,96.4317
3278.3938,96.4113
3279.3579,96.3904
3280.3223,96.3704
3281.2864,96.353
3282.2507,96.3391
3283.2148,96.3288
3284.1792,96.3209
3285.1433,96.3135
3286.1077,96.3049
3287.0718,96.2937
3288.0361,96.2801
3289.0002,96.2654
3289.9646,96.2517
3290.9287,96.2404
3291.8931,96.2306
3292.8572,96.2184
3293.8215,96.1985
3294.7856,96.1671
3295.7500,96.1248
3296.7141,96.0784
3297.6785,96.0383
3298.6426,96.0146
3299.6069,96.0121
3300.5710,96.0278
3301.5354,96.0521
3302.4995,96.0734
3303.4639,96.0826
3304.4280,96.076
3305.3923,96.0556
3306.3564,96.0261
3307.3208,95.9926
3308.2849,95.959
3309.2493,95.9281
3310.2134,95.9016
3311.1777,95.8803
3312.1418,95.8634
3313.1062,95.8483
3314.0703,95.8318
3315.0347,95.8115
3315.9988,95.7879
3316.9631,95.7646
3317.9272,95.7469
3318.8916,95.7388
3319.8557,95.7409
3320.8201,95.7489
3321.7842,95.7561
3322.7485,95.7557
3323.7126,95.7452
3324.6770,95.7271
3325.6411,95.7077
3326.6055,95.6926
3327.5696,95.6835
3328.5339,95.677
3329.4980,95.6674
3330.4624,95.6512
3331.4265,95.6298
3332.3909,95.6101
3333.3550,95.5996
3334.3193,95.6029
3335.2834,95.6182
3336.2478,95.6387
3337.2119,95.6562
3338.1763,95.6648
3339.1404,95.6622
3340.1047,95.6493
3341.0688,95.6295
3342.0332,95.6078
3342.9973,95.59
3343.9617,95.5809
3344.9258,95.5812
3345.8901,95.5869
3346.8542,95.5903
3347.8186,95.5843
3348.7827,95.5666
3349.7471,95.5405
3350.7112,95.5126
3351.6755,95.4883
3352.6396,95.4688
3353.6040,95.4523
3354.5681,95.4372
3355.5325,95.4243
3356.4966,95.4162
3357.4609,95.4144
3358.4250,95.4167
3359.3894,95.4181
3360.3535,95.4146
3361.3179,95.4066
3362.2820,95.3995
3363.2463,95.4003
3364.2104,95.4123
3365.1748,95.4322
3366.1389,95.4515
3367.1033,95.461
3368.0674,95.4562
3369.0317,95.4396
3369.9958,95.4184
3370.9602,95.4004
3371.9243,95.3906
3372.8887,95.3891
3373.8528,95.3925
3374.8171,95.3956
3375.7813,95.3944
3376.7456,95.3872
3377.7097,95.3746
3378.6741,95.3584
3379.6382,95.3404
3380.6025,95.3221
3381.5667,95.3049
3382.5310,95.2911
3383.4951,95.2828
3384.4595,95.2811
3385.4236,95.2847
3386.3879,95.29
3387.3521,95.293
3388.3164,95.2914
3389.2805,95.286
3390.2449,95.2802
3391.2090,95.2767
3392.1733,95.2757
3393.1375,95.2747
3394.1018,95.2706
3395.0659,95.2627
3396.0303,95.2532
3396.9944,95.2461
3397.9587,95.2437
3398.9229,95.245
3399.8872,95.2463
3400.8513,95.2439
3401.8157,95.237
3402.7798,95.2282
3403.7441,95.2212
3404.7083,95.2178
3405.6726,95.2163
3406.6367,95.2127
3407.6011,95.2046
3408.5652,95.193
3409.5295,95.1826
3410.4937,95.1777
3411.4580,95.1792
3412.4221,95.1825
3413.3865,95.1808
3414.3506,95.1696
3415.3149,95.1506
3416.2791,95.1318
3417.2434,95.123
3418.2075,95.1302
3419.1719,95.1513
3420.1360,95.1781
3421.1003,95.201
3422.0645,95.216
3423.0288,95.2253
3423.9929,95.2339
3424.9573,95.2451
3425.9214,95.2575
3426.8857,95.2664
3427.8499,95.2672
3428.8142,95.259
3429.7783,95.246
3430.7427,95.2355
3431.7068,95.2338
3432.6711,95.2428
3433.6353,95.2587
3434.5996,95.2743
3435.5637,95.2828
3436.5281,95.281
3437.4922,95.2703
3438.4565,95.2551
3439.4207,95.2393
3440.3850,95.2254
3441.3491,95.2141
3442.3135,95.2074
3443.2776,95.2096
3444.2419,95.2267
3445.2061,95.2615
3446.1704,95.3092
3447.1345,95.3571
3448.0989,95.3907
3449.0630,95.4017
3450.0273,95.3919
3450.9915,95.3716
3451.9558,95.3544
3452.9199,95.3515
3453.8843,95.3662
3454.8484,95.3934
3455.8127,95.4228
3456.7769,95.4446
3457.7412,95.4548
3458.7053,95.4559
3459.6697,95.4549
3460.6338,95.4591
3461.5981,95.473
3462.5623,95.4964
3463.5266,95.5259
3464.4907,95.5572
3465.4551,95.5869
3466.4192,95.6128
3467.3835,95.6337
3468.3477,95.6485
3469.3120,95.6567
3470.2761,95.6591
3471.2405,95.6581
3472.2046,95.6572
3473.1689,95.6589
3474.1331,95.6629
3475.0974,95.6676
3476.0615,95.6716
3477.0259,95.6772
3477.9900,95.6895
3478.9543,95.7139
3479.9185,95.7508
3480.8828,95.7934
3481.8469,95.8307
3482.8113,95.8544
3483.7754,95.8641
3484.7397,95.8662
3485.7039,95.8694
3486.6682,95.8785
3487.6323,95.8927
3488.5967,95.907
3489.5608,95.9171
3490.5251,95.924
3491.4893,95.9336
3492.4536,95.9537
3493.4177,95.9878
3494.3821,96.0313
3495.3462,96.0722
3496.3105,96.0972
3497.2747,96.1009
3498.2390,96.09
3499.2031,96.0815
3500.1675,96.0939
3501.1316,96.1363
3502.0959,96.1987
3503.0601,96.2567
3504.0244,96.2881
3504.9885,96.2873
3505.9529,96.2655
3506.9170,96.2439
3507.8813,96.2433
3508.8455,96.2751
3509.8098,96.335
3510.7739,96.4069
3511.7383,96.4722
3512.7024,96.5191
3513.6667,96.5445
3514.6309,96.5522
3515.5952,96.5497
3516.5593,96.5453
3517.5237,96.5463
3518.4878,96.5579
3519.4521,96.5827
3520.4163,96.6211
3521.3806,96.6701
3522.3447,96.725
3523.3091,96.7818
3524.2732,96.8409
3525.2375,96.9054
3526.2017,96.9762
3527.1660,97.0475
3528.1301,97.107
3529.0945,97.1437
3530.0586,97.1559
3531.0229,97.1524
3531.9871,97.1482
3532.9514,97.1588
3533.9155,97.1945
3534.8799,97.2563
3535.8440,97.3342
3536.8083,97.4126
3537.7725,97.4782
3538.7368,97.5259
3539.7009,97.5581
3540.6653,97.5842
3541.6294,97.6197
3542.5938,97.6813
3543.5579,97.7755
3544.5222,97.8882
3545.4863,97.9897
3546.4507,98.057
3547.4148,98.0884
3548.3792,98.0991
3549.3433,98.1105
3550.3076,98.1436
3551.2717,98.2123
3552.2361,98.3144
3553.2002,98.4321
3554.1646,98.5428
3555.1287,98.6314
3556.0930,98.6955
3557.0571,98.7439
3558.0215,98.7878
3558.9856,98.8305
3559.9500,98.8618
3560.9141,98.8655
3561.8784,98.8353
3562.8425,98.7913
3563.8069,98.7839
3564.7710,98.8694
3565.7354,99.0508
3566.6995,99.246
3567.6638,99.365
3568.6279,99.3993
3569.5923,99.3876
3570.5564,99.355
3571.5208,99.3125
3572.4849,99.2767
3573.4492,99.2689
3574.4133,99.3029
3575.3777,99.3758
3576.3418,99.4733
3577.3062,99.5782
3578.2703,99.6744
3579.2346,99.7432
3580.1987,99.7551
3581.1631,99.7006
3582.1272,99.5813
3583.0916,99.429
3584.0557,99.3095
3585.0200,99.3011
3585.9841,99.4316
3586.9485,99.6254
3587.9126,99.7596
3588.8770,99.7827
3589.8411,99.7235
3590.8054,99.6289
3591.7695,99.5408
3592.7339,99.497
3593.6980,99.5164
3594.6624,99.5836
3595.6265,99.6634
3596.5908,99.7333
3597.5549,99.7952
3598.5193,99.8604
3599.4834,99.9272
3600.4478,99.9733
3601.4119,99.9705
3602.3762,99.906
3603.3403,99.7913
3604.3047,99.6608
3605.2688,99.5614
3606.2332,99.5311
3607.1973,99.5713
3608.1616,99.6449
3609.1257,99.7113
3610.0901,99.756
3611.0542,99.785
3612.0186,99.8013
3612.9829,99.7959
3613.9470,99.7581
3614.9114,99.6935
3615.8755,99.6334
3616.8398,99.6242
3617.8040,99.6943
3618.7683,99.8186
3619.7324,99.9309
3620.6968,99.9799
3621.6609,99.9481
3622.6252,99.8254
3623.5894,99.6088
3624.5537,99.3345
3625.5178,99.1072
3626.4822,99.0762
3627.4463,99.3137
3628.4106,99.6742
3629.3748,99.9163
3630.3391,99.9784
3631.3032,99.9419
3632.2676,99.8701
3633.2317,99.7903
3634.1960,99.724
3635.1602,99.6927
3636.1245,99.707
3637.0886,99.7619
3638.0530,99.8424
3639.0171,99.9295
3639.9814,100.001
3640.9456,100.028
3641.9099,99.9795
3642.8740,99.8371
3643.8384,99.6145
3644.8025,99.3876
3645.7668,99.3179
3646.7310,99.6118
3647.6953,100.296
3648.6594,100.94
3649.6238,101.053
3650.5879,100.742
3651.5522,100.338
3652.5164,99.9797
3653.4807,99.6909
3654.4448,99.5034
3655.4092,99.4584
3656.3733,99.5549
3657.3376,99.7318
3658.3018,99.9121
3659.2661,100.049
3660.2302,100.133
3661.1946,100.175
3662.1587,100.182
3663.1230,100.14
3664.0872,100.029
3665.0515,99.8513
3666.0156,99.6591
3666.9800,99.5541
3667.9441,99.6211
3668.9084,99.8186
3669.8726,99.9702
3670.8369,99.938
3671.8010,99.749
3672.7654,99.545
3673.7295,99.4888
3674.6938,99.6583
3675.6580,99.9541
3676.6223,100.196
3677.5864,100.309
3678.5508,100.319
3679.5149,100.256
3680.4792,100.14
3681.4434,99.9866
3682.4077,99.801
3683.3718,99.5805
3684.3362,99.3335
3685.3003,99.1097
3686.2646,99.0158
3687.2288,99.1732
3688.1931,99.5871
3689.1572,100.049
3690.1216,100.308
3691.0857,100.322
3692.0500,100.189
3693.0142,99.9961
3693.9785,99.781
3694.9426,99.5625
3695.9070,99.3561
3696.8711,99.1819
3697.8354,99.0685
3698.7996,99.052
3699.7639,99.1574
3700.7280,99.365
3701.6924,99.5963
3702.6565,99.7526
3703.6208,99.7734
3704.5850,99.6525
3705.5493,99.4226
3706.5134,99.1478
3707.4778,98.9291
3708.4419,98.8898
3709.4063,99.1055
3710.3704,99.4979
3711.3347,99.8307
3712.2988,99.9785
3713.2632,99.9815
3714.2273,99.9096
3715.1917,99.7932
3716.1558,99.6493
3717.1201,99.5103
3718.0842,99.423
3719.0486,99.426
3720.0127,99.5286
3720.9771,99.7096
3721.9412,99.9327
3722.9055,100.161
3723.8696,100.356
3724.8340,100.478
3725.7981,100.495
3726.7625,100.399
3727.7266,100.206
3728.6909,99.9461
3729.6550,99.6729
3730.6194,99.4748
3731.5835,99.4748
3732.5479,99.7891
3733.5120,100.415
3734.4763,101.117
3735.4404,101.566
3736.4048,101.647
3737.3689,101.476
3738.3333,101.159
3739.2974,100.727
3740.2617,100.208
3741.2258,99.6938
3742.1902,99.3452
3743.1543,99.2967
3744.1187,99.5099
3745.0828,99.7819
3746.0471,99.9477
3747.0112,99.9917
3747.9756,100.005
3748.9397,100.1
3749.9041,100.282
3750.8682,100.393
3751.8325,100.318
3752.7966,100.121
3753.7610,99.896
3754.7251,99.6762
3755.6895,99.4907
3756.6536,99.39
3757.6179,99.4086
3758.5820,99.5164
3759.5464,99.6321
3760.5105,99.6879
3761.4749,99.6647
3762.4390,99.5809
3763.4033,99.4728
3764.3674,99.3798
3765.3318,99.3313
3766.2959,99.3386
3767.2603,99.3958
3768.2244,99.4842
3769.1887,99.576
3770.1528,99.6411
3771.1172,99.6578
3772.0813,99.6176
3773.0457,99.5226
3774.0098,99.3862
3774.9741,99.2422
3775.9382,99.145
3776.9026,99.148
3777.8667,99.261
3778.8311,99.4316
3779.7952,99.582
3780.7595,99.6674
3781.7236,99.6891
3782.6880,99.6722
3783.6521,99.6418
3784.6165,99.6116
3785.5806,99.5836
3786.5449,99.5547
3787.5090,99.5223
3788.4734,99.4844
3789.4375,99.4386
3790.4019,99.3848
3791.3660,99.3334
3792.3303,99.3068
3793.2944,99.3312
3794.2588,99.4144
3795.2229,99.5304
3796.1873,99.6297
3797.1514,99.6764
3798.1157,99.6761
3799.0798,99.6655
3800.0442,99.6639
3801.0083,99.6406
3801.9727,99.5522
3802.9368,99.4014
3803.9011,99.2358
3804.8652,99.1185
3805.8296,99.1057
3806.7937,99.2136
3807.7581,99.3944
3808.7222,99.5625
3809.6865,99.6445
3810.6506,99.6088
3811.6150,99.4799
3812.5791,99.3371
3813.5435,99.2789
3814.5076,99.348
3815.4719,99.4834
3816.4360,99.5772
3817.4004,99.5826
3818.3645,99.5393
3819.3289,99.5139
3820.2930,99.5309
3821.2573,99.5626
3822.2214,99.5821
3823.1858,99.5889
3824.1499,99.5899
3825.1143,99.5897
3826.0784,99.596
3827.0427,99.618
3828.0068,99.6577
3828.9712,99.7057
3829.9353,99.7442
3830.8997,99.7516
3831.8638,99.7073
3832.8281,99.6015
3833.7922,99.4475
3834.7566,99.2898
3835.7207,99.1935
3836.6851,99.2098
3837.6492,99.3349
3838.6135,99.5097
3839.5776,99.6733
3840.5420,99.8037
3841.5061,99.9082
3842.4705,99.9951
3843.4346,100.06
3844.3989,100.084
3845.3630,100.04
3846.3274,99.8945
3847.2915,99.6236
3848.2559,99.2332
3849.2200,98.794
3850.1843,98.4755
3851.1484,98.5251
3852.1128,99.0616
3853.0769,99.7689
3854.0413,100.172
3855.0054,100.241
3855.9697,100.166
3856.9338,100.023
3857.8982,99.8129
3858.8623,99.5599
3859.8267,99.3349
3860.7908,99.2322
3861.7551,99.3082
3862.7192,99.52
3863.6836,99.7366
3864.6477,99.8376
3865.6121,99.7937
3866.5762,99.6576
3867.5405,99.5157
3868.5046,99.4471
3869.4690,99.4878
3870.4331,99.6122
3871.3975,99.7528
3872.3616,99.8483
3873.3259,99.8699
3874.2900,99.8158
3875.2544,99.7019
3876.2185,99.5602
3877.1829,99.44
3878.1470,99.3948
3879.1113,99.4522
3880.0754,99.5865
3881.0398,99.7294
3882.0039,99.8179
3882.9683,99.8303
3883.9324,99.7796
3884.8967,99.688
3885.8608,99.5718
3886.8252,99.4455
3887.7893,99.3321
3888.7537,99.2726
3889.7178,99.3195
3890.6821,99.4947
3891.6462,99.7411
3892.6106,99.9448
3893.5747,100.018
3894.5391,99.9413
3895.5032,99.75
3896.4675,99.513
3897.4316,99.3134
3898.3960,99.2175
3899.3601,99.2432
3900.3245,99.3608
3901.2886,99.5252
3902.2529,99.6978
3903.2170,99.8446
3904.1814,99.9393
3905.1455,99.9756
3906.1099,99.9647
3907.0740,99.9221
3908.0383,99.8621
3909.0024,99.7988
3909.9668,99.7421
3910.9309,99.6937
3911.8953,99.649
3912.8594,99.6072
3913.8237,99.5816
3914.7878,99.5982
3915.7522,99.6755
3916.7163,99.8003
3917.6807,99.9256
3918.6448,100.001
3919.6091,100.003
3920.5732,99.9446
3921.5376,99.8569
3922.5017,99.7783
3923.4661,99.735
3924.4302,99.7292
3925.3945,99.7422
3926.3586,99.7506
3927.3230,99.744
3928.2871,99.7315
3929.2515,99.7374
3930.2156,99.7829
3931.1799,99.8666
3932.1440,99.9616
3933.1084,100.034
3934.0725,100.06
3935.0369,100.035
3936.0010,99.9641
3936.9653,99.8616
3937.9294,99.7501
3938.8938,99.6564
3939.8579,99.6047
3940.8223,99.6071
3941.7864,99.6556
3942.7507,99.7254
3943.7148,99.7896
3944.6792,99.8328
3945.6433,99.8564
3946.6077,99.8729
3947.5718,99.8949
3948.5361,99.9234
3949.5002,99.9461
3950.4646,99.9475
3951.4287,99.9208
3952.3931,99.8718
3953.3572,99.8158
3954.3215,99.7704
3955.2856,99.7484
3956.2500,99.7536
3957.2141,99.7822
3958.1785,99.8278
3959.1426,99.8845
3960.1069,99.946
3961.0710,100.003
3962.0354,100.043
3962.9995,100.055
3963.9639,100.036
3964.9280,99.9934
3965.8923,99.9419
3966.8564,99.8969
3967.8208,99.8685
3968.7849,99.8586
3969.7493,99.8634
3970.7134,99.8781
3971.6777,99.9005
3972.6418,99.9302
3973.6062,99.9651
3974.5703,100
3975.5347,100.027
3976.4988,100.041
3977.4631,100.04
3978.4272,100.029
3979.3916,100.014
3980.3557,100.001
3981.3201,99.9912
3982.2842,99.9819
3983.2485,99.97
3984.2126,99.9538
3985.1770,99.9349
3986.1411,99.9182
3987.1055,99.9094
3988.0696,99.913
3989.0339,99.9298
3989.9980,99.9559
3990.9624,99.9845
3991.9265,100.009
3992.8909,100.027
3993.8550,100.036
3994.8193,100.039
3995.7834,100.037
3996.7478,100.032
3997.7119,100.026
3998.6763,100.02
3999.6404,100.016
4000.6047,100.173

##### Extended Information
[Comments]
Sample name
Comment
User
Division
Company,HANKYONG

[Detailed Information]
Creation date,4/24/2024 3:55 PM

Data array type,Linear data array
Horizontal axis,Wavenumber [cm-1]
Vertical axis,%T
Start,649.893 cm-1
End,4000.6 cm-1
Data interval,0.964233 cm-1
Data points,3476    

[Measurement Information]
Model Name,FT/IR-4700typeA
Serial Number,D056761788

Accessory,ATR PRO ONE
Accessory S/N,C174761809
Incident angle,45 deg

Measurement Date,4/24/2024 3:55 PM

Light Source,Standard
Detector,TGS
Accumulation,32
Resolution,4 cm-1
Zero Filling,On
Apodization,Cosine
Gain,Auto (4)
Aperture,Auto (7.1 mm)
Scanning Speed,Auto (2 mm/sec)
Filter,Auto (30000 Hz)

