TITLE,
DATA TYPE,INFRARED SPECTRUM
ORIGIN,JASCO
OWNER,
DATE,24/04/24
TIME,15:19:59
SPECTROMETER/DATA SYSTEM,
LOCALE,1033
RESOLUTION,
DELTAX,0.964233
XUNITS,1/CM
YUNITS,TRANSMITTANCE
FIRSTX,  649.8934
LASTX, 4000.6047
NPOINTS,    3476
FIRSTY,    98.47710
MAXY,   101.55697
MINY,    84.32318
XYDATA
649.8934,98.4771
650.8576,98.6223
651.8218,98.768
652.7861,98.9018
653.7503,99.0078
654.7145,99.0174
655.6788,98.9888
656.6430,98.9501
657.6072,98.9209
658.5715,98.9098
659.5357,98.9123
660.4999,98.919
661.4642,98.9283
662.4284,98.9549
663.3926,99.0275
664.3569,99.183
665.3211,99.462
666.2853,99.8903
667.2496,100.412
668.2138,100.806
669.1780,100.835
670.1423,100.568
671.1065,100.25
672.0707,100.023
673.0350,99.917
673.9992,99.9109
674.9634,99.9703
675.9277,100.057
676.8919,100.14
677.8561,100.202
678.8204,100.233
679.7846,100.232
680.7488,100.197
681.7131,100.175
682.6773,100.159
683.6415,100.154
684.6058,100.173
685.5700,100.214
686.5342,100.263
687.4985,100.301
688.4627,100.313
689.4269,100.299
690.3912,100.269
691.3554,100.239
692.3196,100.217
693.2839,100.203
694.2481,100.189
695.2123,100.166
696.1766,100.132
697.1408,100.085
698.1050,100.03
699.0693,99.9793
700.0335,99.9435
700.9977,99.9288
701.9620,99.9334
702.9262,99.9502
703.8904,99.9712
704.8547,99.9908
705.8189,100.006
706.7831,100.017
707.7474,100.022
708.7116,100.023
709.6758,100.022
710.6401,100.021
711.6043,100.021
712.5685,100.022
713.5328,100.023
714.4970,100.023
715.4612,100.006
716.4255,100.02
717.3897,100.045
718.3539,100.074
719.3182,100.093
720.2824,100.084
721.2466,100.038
722.2109,99.9624
723.1751,99.8776
724.1393,99.8037
725.1036,99.7528
726.0678,99.7266
727.0320,99.7189
727.9963,99.7232
728.9605,99.7377
729.9247,99.7663
730.8890,99.8145
731.8532,99.8819
732.8174,99.9588
733.7817,100.028
734.7459,100.071
735.7101,100.078
736.6744,100.052
737.6386,100.008
738.6028,99.9635
739.5671,99.9332
740.5313,99.9207
741.4955,99.9202
742.4598,99.9214
743.4240,99.9165
744.3882,99.9031
745.3525,99.8834
746.3167,99.861
747.2809,99.8387
748.2452,99.8179
749.2094,99.8
750.1736,99.7867
751.1379,99.7783
752.1021,99.7722
753.0663,99.7624
754.0306,99.7417
754.9948,99.7049
755.9590,99.6522
756.9233,99.5895
757.8875,99.526
758.8517,99.4709
759.8160,99.4306
760.7802,99.4069
761.7444,99.397
762.7087,99.3956
763.6729,99.3968
764.6371,99.3961
765.6014,99.3923
766.5656,99.3872
767.5298,99.3847
768.4941,99.3887
769.4583,99.4015
770.4225,99.4216
771.3868,99.4446
772.3510,99.464
773.3152,99.4748
774.2795,99.4753
775.2437,99.4681
776.2079,99.4573
777.1722,99.4459
778.1364,99.4333
779.1006,99.4165
780.0649,99.393
781.0291,99.3635
781.9933,99.3325
782.9576,99.306
783.9218,99.2875
784.8860,99.2754
785.8503,99.2636
786.8145,99.2443
787.7787,99.2116
788.7430,99.1642
789.7072,99.1051
790.6714,99.0402
791.6357,98.9753
792.5999,98.9137
793.5641,98.8545
794.5284,98.7934
795.4926,98.725
796.4568,98.6463
797.4211,98.5581
798.3853,98.4648
799.3495,98.371
800.3138,98.2787
801.2780,98.1856
802.2422,98.0873
803.2065,97.9806
804.1707,97.8666
805.1349,97.7517
806.0992,97.6449
807.0634,97.5542
808.0276,97.483
808.9919,97.4289
809.9561,97.3847
810.9203,97.3427
811.8846,97.2975
812.8488,97.2481
813.8130,97.1967
814.7773,97.1465
815.7415,97.0991
816.7057,97.0544
817.6700,97.0122
818.6342,96.9743
819.5984,96.9452
820.5627,96.9307
821.5269,96.9348
822.4911,96.9583
823.4554,96.9986
824.4196,97.0507
825.3839,97.1098
826.3481,97.172
827.3123,97.235
828.2766,97.2976
829.2408,97.3596
830.2050,97.4213
831.1693,97.4824
832.1335,97.5412
833.0977,97.5949
834.0620,97.6399
835.0262,97.6731
835.9904,97.6936
836.9547,97.7025
837.9189,97.7027
838.8831,97.6971
839.8474,97.6879
840.8116,97.6754
841.7758,97.6585
842.7401,97.636
843.7043,97.6077
844.6685,97.5749
845.6328,97.5398
846.5970,97.5039
847.5612,97.4669
848.5255,97.428
849.4897,97.3885
850.4539,97.354
851.4182,97.3337
852.3824,97.3371
853.3466,97.3688
854.3109,97.4268
855.2751,97.5044
856.2393,97.596
857.2036,97.7004
858.1678,97.8211
859.1320,97.9613
860.0963,98.1198
861.0605,98.2885
862.0247,98.4561
862.9890,98.6127
863.9532,98.7537
864.9174,98.8809
865.8817,98.9991
866.8459,99.1129
867.8101,99.2241
868.7744,99.3301
869.7386,99.4249
870.7028,99.5006
871.6671,99.5521
872.6313,99.5805
873.5955,99.5955
874.5598,99.613
875.5240,99.6476
876.4882,99.7054
877.4525,99.7798
878.4167,99.8545
879.3809,99.9127
880.3452,99.9453
881.3094,99.9555
882.2736,99.9557
883.2379,99.9599
884.2021,99.9787
885.1663,100.017
886.1306,100.076
887.0948,100.153
888.0590,100.241
889.0233,100.328
889.9875,100.399
890.9517,100.439
891.9160,100.443
892.8802,100.416
893.8444,100.375
894.8087,100.336
895.7729,100.308
896.7371,100.286
897.7014,100.26
898.6656,100.218
899.6298,100.152
900.5941,100.063
901.5583,99.9529
902.5225,99.8273
903.4868,99.6888
904.4510,99.541
905.4152,99.3898
906.3795,99.2428
907.3437,99.1075
908.3079,98.9885
909.2722,98.8866
910.2364,98.8009
911.2006,98.731
912.1649,98.6785
913.1291,98.6458
914.0933,98.6352
915.0576,98.647
916.0218,98.6807
916.9860,98.7361
917.9503,98.8143
918.9145,98.9161
919.8787,99.04
920.8430,99.1799
921.8072,99.326
922.7714,99.4677
923.7357,99.5974
924.6999,99.7124
925.6641,99.8144
926.6284,99.9069
927.5926,99.9921
928.5568,100.071
929.5211,100.141
930.4853,100.199
931.4495,100.244
932.4138,100.27
933.3780,100.275
934.3422,100.26
935.3065,100.229
936.2707,100.191
937.2349,100.175
938.1992,100.205
939.1634,100.241
940.1276,100.275
941.0919,100.3
942.0561,100.315
943.0203,100.323
943.9846,100.333
944.9488,100.347
945.9130,100.364
946.8773,100.377
947.8415,100.379
948.8057,100.365
949.7700,100.339
950.7342,100.307
951.6984,100.275
952.6627,100.243
953.6269,100.206
954.5911,100.162
955.5554,100.107
956.5196,100.042
957.4838,99.9726
958.4481,99.9032
959.4123,99.8359
960.3765,99.7701
961.3408,99.7044
962.3050,99.6385
963.2692,99.5746
964.2335,99.5165
965.1977,99.4679
966.1619,99.4308
967.1262,99.4045
968.0904,99.3859
969.0546,99.3702
970.0189,99.3523
970.9831,99.3276
971.9473,99.2931
972.9116,99.2485
973.8758,99.1968
974.8400,99.142
975.8043,99.0876
976.7685,99.0333
977.7327,98.9746
978.6970,98.9049
979.6612,98.819
980.6254,98.7166
981.5897,98.603
982.5539,98.4864
983.5181,98.3736
984.4824,98.266
985.4466,98.1596
986.4108,98.0472
987.3751,97.9235
988.3393,97.7873
989.3035,97.6417
990.2678,97.4906
991.2320,97.3348
992.1962,97.171
993.1605,96.9929
994.1247,96.7949
995.0889,96.5755
996.0532,96.3376
997.0174,96.0871
997.9816,95.8295
998.9459,95.5683
999.9101,95.3041
1000.8743,95.0352
1001.8386,94.7583
1002.8028,94.4688
1003.7670,94.1625
1004.7313,93.8366
1005.6955,93.4909
1006.6597,93.1279
1007.6240,92.7513
1008.5882,92.364
1009.5524,91.9673
1010.5167,91.5613
1011.4809,91.147
1012.4451,90.7276
1013.4094,90.3086
1014.3736,89.896
1015.3378,89.4948
1016.3021,89.1067
1017.2663,88.7301
1018.2305,88.3611
1019.1948,87.9982
1020.1590,87.6462
1021.1232,87.3196
1022.0875,87.0394
1023.0517,86.8242
1024.0160,86.6788
1024.9802,86.5878
1025.9445,86.5195
1026.9087,86.4414
1027.8729,86.3411
1028.8372,86.239
1029.8014,86.184
1030.7656,86.2342
1031.7299,86.4348
1032.6941,86.8026
1033.6583,87.3247
1034.6226,87.9668
1035.5868,88.6863
1036.5510,89.4439
1037.5153,90.2096
1038.4795,90.9637
1039.4437,91.6943
1040.4080,92.3933
1041.3722,93.0537
1042.3364,93.6675
1043.3007,94.2267
1044.2649,94.7264
1045.2291,95.1665
1046.1934,95.5526
1047.1576,95.8913
1048.1218,96.1862
1049.0861,96.4364
1050.0503,96.6409
1051.0145,96.8062
1051.9788,96.9494
1052.9430,97.0934
1053.9072,97.2547
1054.8715,97.4304
1055.8357,97.5963
1056.7999,97.7185
1057.7642,97.7762
1058.7284,97.7819
1059.6926,97.7845
1060.6569,97.8501
1061.6211,98.0303
1062.5853,98.3328
1063.5496,98.7111
1064.5138,99.0774
1065.4780,99.3385
1066.4423,99.4379
1067.4065,99.3809
1068.3707,99.2259
1069.3350,99.0214
1070.2992,98.8346
1071.2634,98.702
1072.2277,98.6056
1073.1919,98.5095
1074.1561,98.3801
1075.1204,98.1997
1076.0846,97.9668
1077.0488,97.6888
1078.0131,97.3736
1078.9773,97.0261
1079.9415,96.6496
1080.9058,96.2484
1081.8700,95.8297
1082.8342,95.4027
1083.7985,94.9759
1084.7627,94.5551
1085.7269,94.1409
1086.6912,93.7302
1087.6554,93.318
1088.6196,92.9022
1089.5839,92.4875
1090.5481,92.0864
1091.5123,91.7166
1092.4766,91.3951
1093.4408,91.1315
1094.4050,90.924
1095.3693,90.7599
1096.3335,90.6194
1097.2977,90.4805
1098.2620,90.3237
1099.2262,90.1333
1100.1904,89.8984
1101.1547,89.6133
1102.1189,89.2781
1103.0831,88.8984
1104.0474,88.4835
1105.0116,88.0438
1105.9758,87.5885
1106.9401,87.1261
1107.9043,86.6669
1108.8685,86.2254
1109.8328,85.8213
1110.7970,85.4753
1111.7612,85.2051
1112.7255,85.0205
1113.6897,84.9232
1114.6539,84.9081
1115.6182,84.9674
1116.5824,85.0937
1117.5466,85.2805
1118.5109,85.5232
1119.4751,85.8186
1120.4393,86.1659
1121.4036,86.5663
1122.3678,87.0229
1123.3320,87.5383
1124.2963,88.1123
1125.2605,88.7406
1126.2247,89.4153
1127.1890,90.1265
1128.1532,90.864
1129.1174,91.6179
1130.0817,92.3775
1131.0459,93.1298
1132.0101,93.8587
1132.9744,94.5461
1133.9386,95.1743
1134.9028,95.729
1135.8671,96.2018
1136.8313,96.5903
1137.7955,96.8969
1138.7598,97.1276
1139.7240,97.29
1140.6882,97.3937
1141.6525,97.4493
1142.6167,97.4682
1143.5809,97.4607
1144.5452,97.4352
1145.5094,97.3966
1146.4736,97.348
1147.4379,97.2921
1148.4021,97.234
1149.3663,97.182
1150.3306,97.1468
1151.2948,97.1393
1152.2590,97.1678
1153.2233,97.2356
1154.1875,97.3411
1155.1517,97.4785
1156.1160,97.6405
1157.0802,97.8207
1158.0444,98.0146
1159.0087,98.2192
1159.9729,98.4319
1160.9371,98.6497
1161.9014,98.8681
1162.8656,99.0814
1163.8298,99.2832
1164.7941,99.4663
1165.7583,99.6234
1166.7225,99.748
1167.6868,99.832
1168.6510,99.8259
1169.6152,99.7821
1170.5795,99.7029
1171.5437,99.59
1172.5079,99.4438
1173.4722,99.2636
1174.4364,99.0491
1175.4006,98.8017
1176.3649,98.5244
1177.3291,98.2217
1178.2933,97.8976
1179.2576,97.5553
1180.2218,97.198
1181.1860,96.8293
1182.1503,96.4539
1183.1145,96.0777
1184.0787,95.7071
1185.0430,95.3469
1186.0072,95.0001
1186.9714,94.6671
1187.9357,94.3459
1188.8999,94.0336
1189.8641,93.7274
1190.8284,93.4244
1191.7926,93.1223
1192.7568,92.8181
1193.7211,92.5086
1194.6853,92.191
1195.6495,91.8635
1196.6138,91.5262
1197.5780,91.1792
1198.5422,90.8225
1199.5065,90.4095
1200.4707,90.0346
1201.4349,89.6487
1202.3992,89.2571
1203.3634,88.8699
1204.3276,88.4994
1205.2919,88.1561
1206.2561,87.8462
1207.2203,87.5705
1208.1846,87.3274
1209.1488,87.1153
1210.1130,86.935
1211.0773,86.7897
1212.0415,86.6839
1213.0057,86.6218
1213.9700,86.6064
1214.9342,86.6389
1215.8984,86.7187
1216.8627,86.8426
1217.8269,87.005
1218.7911,87.1985
1219.7554,87.4159
1220.7196,87.6507
1221.6838,87.8978
1222.6481,88.1528
1223.6123,88.4114
1224.5765,88.6683
1225.5408,88.9174
1226.5050,89.152
1227.4692,89.3665
1228.4335,89.557
1229.3977,89.7224
1230.3619,89.8639
1231.3262,89.984
1232.2904,90.0848
1233.2546,90.169
1234.2189,90.2414
1235.1831,90.3121
1236.1473,90.3956
1237.1116,90.5061
1238.0758,90.6497
1239.0400,90.8182
1240.0043,90.99
1240.9685,91.1404
1241.9327,91.254
1242.8970,91.3334
1243.8612,91.3976
1244.8254,91.4692
1245.7897,91.5606
1246.7539,91.6667
1247.7181,91.768
1248.6824,91.8404
1249.6466,91.8663
1250.6108,91.8397
1251.5751,91.7641
1252.5393,91.6479
1253.5035,91.4992
1254.4678,91.3244
1255.4320,91.1285
1256.3962,90.9158
1257.3605,90.6901
1258.3247,90.4543
1259.2889,90.2117
1260.2532,89.966
1261.2174,89.723
1262.1816,89.4893
1263.1459,89.2717
1264.1101,89.0755
1265.0743,88.9057
1266.0386,88.7671
1267.0028,88.6658
1267.9670,88.6083
1268.9313,88.6004
1269.8955,88.645
1270.8597,88.7398
1271.8240,88.8785
1272.7882,89.0521
1273.7524,89.2518
1274.7167,89.4712
1275.6809,89.7058
1276.6451,89.9524
1277.6094,90.2074
1278.5736,90.4664
1279.5378,90.7249
1280.5021,90.9792
1281.4663,91.2266
1282.4305,91.4657
1283.3948,91.6953
1284.3590,91.9136
1285.3232,92.1184
1286.2875,92.307
1287.2517,92.4766
1288.2159,92.6259
1289.1802,92.755
1290.1444,92.8667
1291.1086,92.9646
1292.0729,93.0517
1293.0371,93.1291
1294.0013,93.1952
1294.9656,93.247
1295.9298,93.282
1296.8940,93.2999
1297.8583,93.303
1298.8225,93.295
1299.7867,93.2802
1300.7510,93.2616
1301.7152,93.2414
1302.6794,93.2207
1303.6437,93.199
1304.6079,93.1749
1305.5721,93.1462
1306.5364,93.1107
1307.5006,93.0677
1308.4648,93.0189
1309.4291,92.9674
1310.3933,92.9163
1311.3575,92.867
1312.3218,92.8178
1313.2860,92.7659
1314.2502,92.7087
1315.2145,92.6464
1316.1787,92.5812
1317.1429,92.517
1318.1072,92.4565
1319.0714,92.401
1320.0356,92.3504
1320.9999,92.3052
1321.9641,92.2665
1322.9283,92.2367
1323.8926,92.2182
1324.8568,92.2138
1325.8210,92.2255
1326.7853,92.2559
1327.7495,92.3076
1328.7137,92.3836
1329.6780,92.4863
1330.6422,92.6155
1331.6064,92.7668
1332.5707,92.9317
1333.5349,93.101
1334.4991,93.2696
1335.4634,93.4398
1336.4276,93.6213
1337.3918,93.8243
1338.3561,94.0492
1339.3203,94.2819
1340.2845,94.5025
1341.2488,94.6993
1342.2130,94.873
1343.1772,95.0302
1344.1415,95.1773
1345.1057,95.317
1346.0699,95.4484
1347.0342,95.5675
1347.9984,95.6711
1348.9626,95.7585
1349.9269,95.8321
1350.8911,95.8957
1351.8553,95.9532
1352.8196,96.0078
1353.7838,96.0613
1354.7480,96.1119
1355.7123,96.1543
1356.6765,96.1814
1357.6407,96.1894
1358.6050,96.1822
1359.5692,96.172
1360.5334,96.1735
1361.4977,96.193
1362.4619,96.2225
1363.4261,96.2482
1364.3904,96.2638
1365.3546,96.2726
1366.3188,96.2823
1367.2831,96.3013
1368.2473,96.3357
1369.2115,96.3889
1370.1758,96.4647
1371.1400,96.5718
1372.1042,96.7233
1373.0685,96.9276
1374.0327,97.1741
1374.9969,97.433
1375.9612,97.6749
1376.9254,97.8902
1377.8896,98.0876
1378.8539,98.279
1379.8181,98.4669
1380.7823,98.6399
1381.7466,98.7802
1382.7108,98.876
1383.6750,98.9293
1384.6393,98.9556
1385.6035,98.9758
1386.5677,99.0073
1387.5320,99.0601
1388.4962,99.1391
1389.4604,99.2438
1390.4247,99.3652
1391.3889,99.4917
1392.3531,99.6007
1393.3174,99.6647
1394.2816,99.6538
1395.2458,99.5563
1396.2101,99.401
1397.1743,99.246
1398.1385,99.1373
1399.1028,99.0835
1400.0670,99.0637
1401.0313,99.0494
1401.9955,99.0197
1402.9597,98.9623
1403.9240,98.8688
1404.8882,98.7305
1405.8524,98.5414
1406.8167,98.3026
1407.7809,98.0174
1408.7451,97.6828
1409.7094,97.2909
1410.6736,96.84
1411.6378,96.3455
1412.6021,95.8358
1413.5663,95.3329
1414.5305,94.8369
1415.4948,94.3291
1416.4590,93.7862
1417.4232,93.2016
1418.3875,92.6117
1419.3517,92.0971
1420.3159,91.7238
1421.2802,91.4909
1422.2444,91.3538
1423.2086,91.2706
1424.1729,91.2212
1425.1371,91.203
1426.1013,91.2235
1427.0656,91.2967
1428.0298,91.4381
1428.9940,91.6509
1429.9583,91.9115
1430.9225,92.1732
1431.8867,92.3932
1432.8510,92.5558
1433.8152,92.6746
1434.7794,92.774
1435.7437,92.8592
1436.7079,92.8992
1437.6721,92.8587
1438.6364,92.7312
1439.6006,92.5209
1440.5648,92.2242
1441.5291,91.8388
1442.4933,91.3761
1443.4575,90.8613
1444.4218,90.3208
1445.3860,89.7715
1446.3502,89.2211
1447.3145,88.6821
1448.2787,88.1838
1449.2429,87.7624
1450.2072,87.4344
1451.1714,87.1837
1452.1356,86.9768
1453.0999,86.788
1454.0641,86.6166
1455.0283,86.4809
1455.9926,86.3735
1456.9568,86.2259
1457.9210,86.0236
1458.8853,85.8706
1459.8495,85.8147
1460.8137,85.8211
1461.7780,85.8695
1462.7422,85.9989
1463.7064,86.2865
1464.6707,86.7742
1465.6349,87.3998
1466.5991,88.0379
1467.5634,88.6046
1468.5276,89.0971
1469.4918,89.5753
1470.4561,90.1364
1471.4203,90.868
1472.3845,91.7476
1473.3488,92.5874
1474.3130,93.2062
1475.2772,93.6048
1476.2415,93.8725
1477.2057,94.0653
1478.1699,94.1954
1479.1342,94.2578
1480.0984,94.2465
1481.0626,94.1604
1482.0269,94.0056
1482.9911,93.7949
1483.9553,93.5443
1484.9196,93.269
1485.8838,92.9789
1486.8480,92.6709
1487.8123,92.3189
1488.7765,91.889
1489.7407,91.4025
1490.7050,90.943
1491.6692,90.5609
1492.6334,90.234
1493.5977,89.9137
1494.5619,89.5644
1495.5261,89.1701
1496.4904,88.7317
1497.4546,88.2744
1498.4188,87.8517
1499.3831,87.5063
1500.3473,87.2292
1501.3115,86.9771
1502.2758,86.713
1503.2400,86.427
1504.2042,86.1385
1505.1685,85.8709
1506.1327,85.582
1507.0969,85.1668
1508.0612,84.7124
1509.0254,84.4311
1509.9896,84.3327
1510.9539,84.3232
1511.9181,84.3555
1512.8823,84.4541
1513.8466,84.6894
1514.8108,85.1277
1515.7750,85.7738
1516.7393,86.5562
1517.7035,87.3946
1518.6677,88.2921
1519.6320,89.3406
1520.5962,90.6044
1521.5604,91.9886
1522.5247,93.2802
1523.4889,94.3384
1524.4531,95.1833
1525.4174,95.9114
1526.3816,96.5815
1527.3458,97.178
1528.3101,97.6554
1529.2743,97.9961
1530.2385,98.2344
1531.2028,98.4401
1532.1670,98.6732
1533.1312,98.9295
1534.0955,99.1387
1535.0597,99.2359
1536.0239,99.2145
1536.9882,99.1251
1537.9524,99.0685
1538.9166,99.1785
1539.8809,99.506
1540.8451,99.8344
1541.8093,99.9074
1542.7736,99.8094
1543.7378,99.7045
1544.7020,99.6569
1545.6663,99.628
1546.6305,99.6002
1547.5947,99.5655
1548.5590,99.5224
1549.5232,99.472
1550.4874,99.4152
1551.4517,99.3497
1552.4159,99.2699
1553.3801,99.1689
1554.3444,99.0462
1555.3086,98.9209
1556.2728,98.8411
1557.2371,98.8452
1558.2013,98.8411
1559.1655,98.6841
1560.1298,98.4881
1561.0940,98.3936
1562.0582,98.364
1563.0225,98.3214
1563.9867,98.2269
1564.9509,98.0812
1565.9152,97.9045
1566.8794,97.7146
1567.8436,97.5103
1568.8079,97.2774
1569.7721,97.0182
1570.7363,96.7596
1571.7006,96.5183
1572.6648,96.2826
1573.6290,96.0245
1574.5933,95.7143
1575.5575,95.3296
1576.5217,94.8883
1577.4860,94.4643
1578.4502,94.1115
1579.4144,93.8071
1580.3787,93.496
1581.3429,93.1446
1582.3071,92.7547
1583.2714,92.352
1584.2356,91.9631
1585.1998,91.5997
1586.1641,91.258
1587.1283,90.933
1588.0925,90.6277
1589.0568,90.3525
1590.0210,90.1164
1590.9852,89.9213
1591.9495,89.7636
1592.9137,89.6395
1593.8779,89.5464
1594.8422,89.4811
1595.8064,89.4385
1596.7706,89.4139
1597.7349,89.405
1598.6991,89.4121
1599.6633,89.4357
1600.6276,89.4743
1601.5918,89.5248
1602.5560,89.5838
1603.5203,89.6499
1604.4845,89.7228
1605.4487,89.8033
1606.4130,89.8937
1607.3772,89.9981
1608.3414,90.1201
1609.3057,90.2561
1610.2699,90.3935
1611.2341,90.5169
1612.1984,90.6203
1613.1626,90.7216
1614.1268,90.8707
1615.0911,91.1293
1616.0553,91.5102
1617.0195,91.9347
1617.9838,92.3048
1618.9480,92.5938
1619.9122,92.8341
1620.8765,93.075
1621.8407,93.3552
1622.8049,93.6771
1623.7692,93.9977
1624.7334,94.2664
1625.6976,94.4732
1626.6619,94.6463
1627.6261,94.8139
1628.5903,94.9778
1629.5546,95.1161
1630.5188,95.204
1631.4830,95.2357
1632.4473,95.2358
1633.4115,95.2607
1634.3757,95.3713
1635.3400,95.5619
1636.3042,95.7361
1637.2684,95.8337
1638.2327,95.8851
1639.1969,95.9216
1640.1611,95.9419
1641.1254,95.9338
1642.0896,95.8935
1643.0538,95.8345
1644.0181,95.791
1644.9823,95.7993
1645.9465,95.8535
1646.9108,95.8893
1647.8750,95.8565
1648.8392,95.7601
1649.8035,95.626
1650.7677,95.4951
1651.7319,95.4268
1652.6962,95.4334
1653.6604,95.4281
1654.6246,95.3925
1655.5889,95.3914
1656.5531,95.4163
1657.5173,95.4217
1658.4816,95.3863
1659.4458,95.3209
1660.4100,95.2505
1661.3743,95.191
1662.3385,95.1389
1663.3027,95.0849
1664.2670,95.0265
1665.2312,94.9646
1666.1954,94.9039
1667.1597,94.8569
1668.1239,94.8366
1669.0881,94.8364
1670.0524,94.8271
1671.0166,94.7883
1671.9808,94.7252
1672.9451,94.6521
1673.9093,94.5826
1674.8735,94.5302
1675.8378,94.5041
1676.8020,94.503
1677.7662,94.5117
1678.7305,94.5071
1679.6947,94.4735
1680.6589,94.4165
1681.6232,94.3646
1682.5874,94.3429
1683.5516,94.3308
1684.5159,94.2886
1685.4801,94.2356
1686.4443,94.2055
1687.4086,94.1895
1688.3728,94.1604
1689.3370,94.1013
1690.3013,94.0094
1691.2655,93.8909
1692.2297,93.7555
1693.1940,93.6149
1694.1582,93.4831
1695.1224,93.3713
1696.0867,93.279
1697.0509,93.187
1698.0151,93.0671
1698.9794,92.9113
1699.9436,92.7524
1700.9078,92.6377
1701.8721,92.5857
1702.8363,92.5768
1703.8005,92.5751
1704.7648,92.5522
1705.7290,92.4975
1706.6932,92.4207
1707.6575,92.3429
1708.6217,92.2801
1709.5859,92.2335
1710.5502,92.1947
1711.5144,92.1561
1712.4786,92.1183
1713.4429,92.0943
1714.4071,92.1076
1715.3713,92.1748
1716.3356,92.2739
1717.2998,92.3518
1718.2640,92.3993
1719.2283,92.454
1720.1925,92.5355
1721.1567,92.6353
1722.1210,92.7392
1723.0852,92.839
1724.0494,92.9328
1725.0137,93.0235
1725.9779,93.1166
1726.9421,93.2154
1727.9064,93.3162
1728.8706,93.4109
1729.8348,93.4972
1730.7991,93.5909
1731.7633,93.7272
1732.7275,93.9324
1733.6918,94.1859
1734.6560,94.4365
1735.6202,94.6586
1736.5845,94.8579
1737.5487,95.0502
1738.5129,95.2525
1739.4772,95.4757
1740.4414,95.7142
1741.4056,95.9471
1742.3699,96.1563
1743.3341,96.3395
1744.2983,96.5043
1745.2626,96.6584
1746.2268,96.8074
1747.1910,96.9565
1748.1553,97.108
1749.1195,97.2558
1750.0837,97.3878
1751.0480,97.5
1752.0122,97.5993
1752.9764,97.6928
1753.9407,97.784
1754.9049,97.8739
1755.8691,97.9616
1756.8334,98.0427
1757.7976,98.1127
1758.7618,98.1728
1759.7261,98.2307
1760.6903,98.2938
1761.6545,98.3616
1762.6188,98.4254
1763.5830,98.4768
1764.5472,98.5136
1765.5115,98.5403
1766.4757,98.5649
1767.4399,98.5975
1768.4042,98.6474
1769.3684,98.7215
1770.3326,98.8182
1771.2969,98.9212
1772.2611,99.0049
1773.2253,99.0561
1774.1896,99.084
1775.1538,99.1031
1776.1180,99.1205
1777.0823,99.1396
1778.0465,99.1638
1779.0107,99.1946
1779.9750,99.2281
1780.9392,99.2573
1781.9034,99.2785
1782.8677,99.2947
1783.8319,99.3114
1784.7961,99.33
1785.7604,99.3463
1786.7246,99.3531
1787.6888,99.3465
1788.6531,99.332
1789.6173,99.3256
1790.5815,99.3447
1791.5458,99.3901
1792.5100,99.4402
1793.4742,99.4744
1794.4385,99.4902
1795.4027,99.4937
1796.3669,99.49
1797.3312,99.4846
1798.2954,99.4837
1799.2596,99.491
1800.2239,99.5028
1801.1881,99.5125
1802.1523,99.5165
1803.1166,99.5155
1804.0808,99.5116
1805.0450,99.5062
1806.0093,99.501
1806.9735,99.4993
1807.9377,99.5046
1808.9020,99.5182
1809.8662,99.5366
1810.8304,99.5523
1811.7947,99.5594
1812.7589,99.5569
1813.7231,99.5483
1814.6874,99.5387
1815.6516,99.5328
1816.6158,99.5327
1817.5801,99.5361
1818.5443,99.5377
1819.5085,99.54
1820.4728,99.5413
1821.4370,99.5376
1822.4012,99.5343
1823.3655,99.5354
1824.3297,99.5416
1825.2939,99.5516
1826.2582,99.5653
1827.2224,99.5845
1828.1866,99.6094
1829.1509,99.6349
1830.1151,99.6528
1831.0793,99.6593
1832.0436,99.6582
1833.0078,99.6557
1833.9720,99.6556
1834.9363,99.6596
1835.9005,99.6669
1836.8647,99.6726
1837.8290,99.6697
1838.7932,99.6535
1839.7574,99.6256
1840.7217,99.5949
1841.6859,99.5766
1842.6501,99.5847
1843.6144,99.6187
1844.5786,99.6612
1845.5428,99.6937
1846.5071,99.7106
1847.4713,99.7149
1848.4355,99.711
1849.3998,99.7032
1850.3640,99.6952
1851.3282,99.6897
1852.2925,99.6873
1853.2567,99.6866
1854.2209,99.6864
1855.1852,99.6857
1856.1494,99.6844
1857.1136,99.6828
1858.0779,99.6814
1859.0421,99.6804
1860.0063,99.6802
1860.9706,99.6808
1861.9348,99.6814
1862.8990,99.6809
1863.8633,99.6794
1864.8275,99.6798
1865.7917,99.688
1866.7560,99.708
1867.7202,99.7346
1868.6844,99.7547
1869.6487,99.7601
1870.6129,99.7549
1871.5771,99.747
1872.5414,99.74
1873.5056,99.7342
1874.4698,99.7299
1875.4341,99.727
1876.3983,99.7253
1877.3625,99.724
1878.3268,99.7233
1879.2910,99.7244
1880.2552,99.7287
1881.2195,99.736
1882.1837,99.744
1883.1479,99.7496
1884.1122,99.7511
1885.0764,99.7495
1886.0406,99.7483
1887.0049,99.7514
1887.9691,99.76
1888.9333,99.7713
1889.8976,99.7808
1890.8618,99.7864
1891.8260,99.79
1892.7903,99.795
1893.7545,99.8035
1894.7188,99.815
1895.6830,99.8261
1896.6472,99.8331
1897.6115,99.8345
1898.5757,99.8318
1899.5399,99.8283
1900.5042,99.8269
1901.4684,99.8287
1902.4326,99.833
1903.3969,99.8383
1904.3611,99.8434
1905.3253,99.8486
1906.2896,99.8549
1907.2538,99.8634
1908.2180,99.8738
1909.1823,99.8839
1910.1465,99.8906
1911.1107,99.8918
1912.0750,99.8875
1913.0392,99.8794
1914.0034,99.8705
1914.9677,99.8644
1915.9319,99.8636
1916.8961,99.8679
1917.8604,99.8747
1918.8246,99.8821
1919.7888,99.8906
1920.7531,99.9013
1921.7173,99.9136
1922.6815,99.9246
1923.6458,99.9302
1924.6100,99.9279
1925.5742,99.9189
1926.5385,99.9071
1927.5027,99.8968
1928.4669,99.8907
1929.4312,99.8893
1930.3954,99.8911
1931.3596,99.8937
1932.3239,99.8956
1933.2881,99.8959
1934.2523,99.8947
1935.2166,99.8918
1936.1808,99.887
1937.1450,99.8805
1938.1093,99.874
1939.0735,99.8706
1940.0377,99.8737
1941.0020,99.8841
1941.9662,99.8987
1942.9304,99.9108
1943.8947,99.9154
1944.8589,99.9112
1945.8231,99.9007
1946.7874,99.8877
1947.7516,99.8752
1948.7158,99.8652
1949.6801,99.8584
1950.6443,99.8546
1951.6085,99.8532
1952.5728,99.8532
1953.5370,99.8539
1954.5012,99.8543
1955.4655,99.8541
1956.4297,99.8536
1957.3939,99.8535
1958.3582,99.8545
1959.3224,99.8564
1960.2866,99.8582
1961.2509,99.859
1962.2151,99.859
1963.1793,99.8595
1964.1436,99.8621
1965.1078,99.8671
1966.0720,99.8726
1967.0363,99.8754
1968.0005,99.8735
1968.9647,99.8679
1969.9290,99.8621
1970.8932,99.8594
1971.8574,99.861
1972.8217,99.8655
1973.7859,99.87
1974.7501,99.8716
1975.7144,99.8697
1976.6786,99.8657
1977.6428,99.8621
1978.6071,99.8605
1979.5713,99.8611
1980.5355,99.8627
1981.4998,99.8644
1982.4640,99.8657
1983.4282,99.8672
1984.3925,99.8694
1985.3567,99.8721
1986.3209,99.875
1987.2852,99.8781
1988.2494,99.8819
1989.2136,99.8867
1990.1779,99.8923
1991.1421,99.8966
1992.1063,99.8973
1993.0706,99.8934
1994.0348,99.8862
1994.9990,99.8786
1995.9633,99.8732
1996.9275,99.8712
1997.8917,99.8724
1998.8560,99.875
1999.8202,99.8771
2000.7844,99.8776
2001.7487,99.8763
2002.7129,99.8741
2003.6771,99.8719
2004.6414,99.8702
2005.6056,99.8691
2006.5698,99.8681
2007.5341,99.8662
2008.4983,99.8627
2009.4625,99.8571
2010.4268,99.8503
2011.3910,99.8443
2012.3552,99.8416
2013.3195,99.8445
2014.2837,99.8533
2015.2479,99.8658
2016.2122,99.8781
2017.1764,99.8857
2018.1406,99.8863
2019.1049,99.8805
2020.0691,99.8713
2021.0333,99.8622
2021.9976,99.8557
2022.9618,99.8523
2023.9260,99.8511
2024.8903,99.8502
2025.8545,99.8479
2026.8187,99.8436
2027.7830,99.8379
2028.7472,99.8321
2029.7114,99.8276
2030.6757,99.8255
2031.6399,99.826
2032.6041,99.8287
2033.5684,99.8325
2034.5326,99.8362
2035.4968,99.8386
2036.4611,99.8394
2037.4253,99.8386
2038.3895,99.8366
2039.3538,99.8342
2040.3180,99.8316
2041.2822,99.8291
2042.2465,99.8266
2043.2107,99.8245
2044.1749,99.8231
2045.1392,99.8228
2046.1034,99.8233
2047.0676,99.8241
2048.0320,99.8242
2048.9961,99.8232
2049.9604,99.8211
2050.9246,99.8183
2051.8889,99.8154
2052.8530,99.8125
2053.8174,99.8097
2054.7815,99.8068
2055.7458,99.8045
2056.7100,99.8032
2057.6743,99.8037
2058.6384,99.8061
2059.6028,99.8104
2060.5669,99.8164
2061.5313,99.8238
2062.4954,99.8317
2063.4597,99.839
2064.4238,99.8437
2065.3882,99.8441
2066.3523,99.84
2067.3167,99.8327
2068.2808,99.8252
2069.2451,99.8201
2070.2092,99.8192
2071.1736,99.8226
2072.1377,99.8291
2073.1021,99.8368
2074.0662,99.8441
2075.0305,99.8501
2075.9946,99.854
2076.9590,99.8555
2077.9231,99.8548
2078.8875,99.8522
2079.8516,99.849
2080.8159,99.8466
2081.7800,99.8466
2082.7444,99.8496
2083.7085,99.855
2084.6729,99.8615
2085.6370,99.8675
2086.6013,99.8718
2087.5654,99.8746
2088.5298,99.8762
2089.4939,99.8775
2090.4583,99.8786
2091.4224,99.8791
2092.3867,99.8787
2093.3508,99.8775
2094.3152,99.8765
2095.2793,99.8766
2096.2437,99.8783
2097.2078,99.8812
2098.1721,99.8843
2099.1362,99.8867
2100.1006,99.8887
2101.0647,99.8906
2102.0291,99.8932
2102.9932,99.8962
2103.9575,99.8987
2104.9216,99.9002
2105.8860,99.9007
2106.8501,99.9012
2107.8145,99.9027
2108.7786,99.9059
2109.7429,99.9103
2110.7070,99.915
2111.6714,99.9186
2112.6355,99.9203
2113.5999,99.9197
2114.5640,99.9168
2115.5283,99.9122
2116.4924,99.9072
2117.4568,99.903
2118.4209,99.9007
2119.3853,99.9007
2120.3494,99.9023
2121.3137,99.9042
2122.2778,99.9054
2123.2422,99.9055
2124.2063,99.9051
2125.1707,99.905
2126.1348,99.9057
2127.0991,99.9072
2128.0632,99.9087
2129.0276,99.9094
2129.9917,99.9087
2130.9561,99.9067
2131.9202,99.9044
2132.8845,99.9032
2133.8486,99.9045
2134.8130,99.9085
2135.7771,99.914
2136.7415,99.9186
2137.7056,99.9199
2138.6699,99.9168
2139.6340,99.9103
2140.5984,99.9026
2141.5625,99.8962
2142.5269,99.8921
2143.4910,99.89
2144.4553,99.8891
2145.4194,99.8888
2146.3838,99.8894
2147.3479,99.8914
2148.3123,99.895
2149.2764,99.8992
2150.2407,99.9025
2151.2048,99.904
2152.1692,99.9037
2153.1333,99.9028
2154.0977,99.9025
2155.0618,99.9035
2156.0261,99.9057
2156.9902,99.9081
2157.9546,99.9099
2158.9187,99.9107
2159.8831,99.9109
2160.8472,99.9114
2161.8115,99.9131
2162.7756,99.9162
2163.7400,99.9206
2164.7041,99.9251
2165.6685,99.9289
2166.6326,99.9312
2167.5969,99.9319
2168.5610,99.9316
2169.5254,99.931
2170.4895,99.9306
2171.4539,99.9309
2172.4180,99.9319
2173.3823,99.9337
2174.3464,99.936
2175.3108,99.9385
2176.2749,99.9408
2177.2393,99.9427
2178.2034,99.9446
2179.1677,99.9466
2180.1318,99.9492
2181.0962,99.9521
2182.0603,99.9547
2183.0247,99.9565
2183.9888,99.9573
2184.9531,99.9572
2185.9172,99.9566
2186.8816,99.9561
2187.8457,99.9556
2188.8101,99.9556
2189.7742,99.9562
2190.7385,99.958
2191.7026,99.9611
2192.6670,99.965
2193.6311,99.9686
2194.5955,99.9709
2195.5596,99.9711
2196.5239,99.9696
2197.4880,99.9673
2198.4524,99.9652
2199.4165,99.9644
2200.3809,99.965
2201.3450,99.9669
2202.3093,99.9693
2203.2734,99.971
2204.2378,99.971
2205.2019,99.9688
2206.1663,99.9648
2207.1304,99.9601
2208.0947,99.9564
2209.0588,99.9547
2210.0232,99.9549
2210.9873,99.9563
2211.9517,99.9574
2212.9158,99.9575
2213.8801,99.9564
2214.8442,99.955
2215.8086,99.9539
2216.7727,99.9538
2217.7371,99.9549
2218.7012,99.9571
2219.6655,99.96
2220.6296,99.9628
2221.5940,99.9644
2222.5581,99.9638
2223.5225,99.9606
2224.4866,99.9553
2225.4509,99.9492
2226.4150,99.9439
2227.3794,99.9401
2228.3435,99.9381
2229.3079,99.9373
2230.2720,99.9371
2231.2363,99.9374
2232.2004,99.9382
2233.1648,99.94
2234.1289,99.9424
2235.0933,99.9448
2236.0574,99.9459
2237.0217,99.9449
2237.9858,99.9416
2238.9502,99.9367
2239.9143,99.9313
2240.8787,99.9265
2241.8428,99.9231
2242.8071,99.9217
2243.7712,99.9226
2244.7356,99.9256
2245.6997,99.9302
2246.6641,99.9352
2247.6282,99.939
2248.5925,99.9402
2249.5566,99.938
2250.5210,99.9329
2251.4851,99.9261
2252.4495,99.9192
2253.4136,99.9134
2254.3779,99.9091
2255.3420,99.906
2256.3064,99.9031
2257.2705,99.8999
2258.2349,99.8967
2259.1990,99.8942
2260.1633,99.8932
2261.1274,99.8942
2262.0918,99.8963
2263.0559,99.8982
2264.0203,99.8984
2264.9844,99.8959
2265.9487,99.8909
2266.9128,99.8843
2267.8772,99.8771
2268.8413,99.8702
2269.8057,99.8637
2270.7698,99.8578
2271.7341,99.8528
2272.6982,99.8495
2273.6626,99.8487
2274.6267,99.8506
2275.5911,99.8543
2276.5552,99.8581
2277.5195,99.8599
2278.4836,99.8582
2279.4480,99.8526
2280.4121,99.8438
2281.3765,99.8329
2282.3406,99.8206
2283.3049,99.8072
2284.2690,99.7923
2285.2334,99.7757
2286.1975,99.7574
2287.1619,99.7378
2288.1260,99.7175
2289.0903,99.6702
2290.0544,99.6218
2291.0188,99.573
2291.9829,99.5228
2292.9473,99.4699
2293.9114,99.4134
2294.8757,99.3531
2295.8398,99.2896
2296.8042,99.2241
2297.7683,99.1573
2298.7327,99.0888
2299.6968,99.0164
2300.6611,98.937
2301.6252,98.8478
2302.5896,98.7482
2303.5537,98.6402
2304.5181,98.5287
2305.4822,98.4195
2306.4465,98.3169
2307.4106,98.2219
2308.3750,98.1318
2309.3391,98.0421
2310.3035,97.9496
2311.2676,97.854
2312.2319,97.7578
2313.1960,97.6634
2314.1604,97.5701
2315.1245,97.4743
2316.0889,97.3719
2317.0530,97.2621
2318.0173,97.1496
2318.9814,97.0444
2319.9458,96.9588
2320.9099,96.9035
2321.8743,96.8848
2322.8384,96.9034
2323.8027,96.9546
2324.7668,97.0281
2325.7312,97.1092
2326.6953,97.1813
2327.6597,97.2297
2328.6238,97.2473
2329.5881,97.2386
2330.5522,97.2189
2331.5166,97.2072
2332.4807,97.2149
2333.4451,97.2404
2334.4092,97.2734
2335.3735,97.3042
2336.3376,97.3305
2337.3020,97.358
2338.2661,97.3959
2339.2305,97.4502
2340.1946,97.5153
2341.1589,97.5623
2342.1230,97.5345
2343.0874,97.3823
2344.0515,97.137
2345.0159,96.9151
2345.9800,96.8035
2346.9443,96.7851
2347.9084,96.7817
2348.8728,96.7283
2349.8369,96.6144
2350.8013,96.4932
2351.7654,96.4642
2352.7297,96.6252
2353.6938,97.0049
2354.6582,97.534
2355.6223,98.1064
2356.5867,98.6577
2357.5508,99.1588
2358.5151,99.5651
2359.4792,99.8134
2360.4436,99.9301
2361.4077,99.9158
2362.3721,99.758
2363.3362,99.482
2364.3005,99.1129
2365.2646,98.6916
2366.2290,98.2693
2367.1931,97.8866
2368.1575,97.5637
2369.1216,97.3064
2370.0859,97.1169
2371.0500,96.9979
2372.0144,96.9517
2372.9785,96.977
2373.9429,97.0687
2374.9070,97.2185
2375.8713,97.417
2376.8354,97.653
2377.7998,97.9149
2378.7639,98.1899
2379.7283,98.4654
2380.6924,98.7295
2381.6567,98.973
2382.6208,99.1897
2383.5852,99.3773
2384.5493,99.5371
2385.5137,99.6733
2386.4778,99.7916
2387.4421,99.8978
2388.4063,99.9964
2389.3706,100.057
2390.3347,100.067
2391.2991,100.072
2392.2632,100.073
2393.2275,100.073
2394.1917,100.072
2395.1560,100.074
2396.1201,100.078
2397.0845,100.082
2398.0486,100.083
2399.0129,100.081
2399.9771,100.074
2400.9414,100.066
2401.9055,100.062
2402.8699,100.064
2403.8340,100.07
2404.7983,100.078
2405.7625,100.085
2406.7268,100.09
2407.6909,100.094
2408.6553,100.096
2409.6194,100.097
2410.5837,100.096
2411.5479,100.093
2412.5122,100.087
2413.4763,100.079
2414.4407,100.073
2415.4048,100.068
2416.3691,100.066
2417.3333,100.066
2418.2976,100.067
2419.2617,100.068
2420.2261,100.068
2421.1902,100.067
2422.1545,100.065
2423.1187,100.062
2424.0830,100.06
2425.0471,100.059
2426.0115,100.059
2426.9756,100.059
2427.9399,100.059
2428.9041,100.058
2429.8684,100.054
2430.8325,100.049
2431.7969,100.043
2432.7610,100.039
2433.7253,100.038
2434.6895,100.041
2435.6538,100.049
2436.6179,100.057
2437.5823,100.065
2438.5464,100.069
2439.5107,100.069
2440.4749,100.065
2441.4392,100.059
2442.4033,100.055
2443.3677,100.053
2444.3318,100.054
2445.2961,100.056
2446.2603,100.056
2447.2246,100.055
2448.1887,100.052
2449.1531,100.05
2450.1172,100.051
2451.0815,100.054
2452.0457,100.058
2453.0100,100.058
2453.9741,100.053
2454.9385,100.044
2455.9026,100.035
2456.8669,100.028
2457.8311,100.027
2458.7954,100.032
2459.7595,100.04
2460.7239,100.049
2461.6880,100.054
2462.6523,100.056
2463.6165,100.054
2464.5808,100.047
2465.5449,100.04
2466.5093,100.033
2467.4734,100.03
2468.4377,100.03
2469.4019,100.035
2470.3662,100.04
2471.3303,100.044
2472.2947,100.045
2473.2588,100.044
2474.2231,100.042
2475.1873,100.042
2476.1516,100.044
2477.1157,100.048
2478.0801,100.052
2479.0442,100.056
2480.0085,100.057
2480.9727,100.057
2481.9370,100.056
2482.9011,100.054
2483.8655,100.053
2484.8296,100.053
2485.7939,100.053
2486.7581,100.052
2487.7224,100.051
2488.6865,100.049
2489.6509,100.046
2490.6150,100.044
2491.5793,100.043
2492.5435,100.041
2493.5078,100.039
2494.4719,100.038
2495.4363,100.037
2496.4004,100.036
2497.3647,100.036
2498.3289,100.038
2499.2932,100.042
2500.2573,100.048
2501.2217,100.054
2502.1858,100.058
2503.1501,100.057
2504.1143,100.052
2505.0786,100.044
2506.0427,100.036
2507.0071,100.031
2507.9712,100.032
2508.9355,100.035
2509.8997,100.039
2510.8640,100.039
2511.8281,100.037
2512.7925,100.032
2513.7566,100.029
2514.7209,100.028
2515.6851,100.029
2516.6494,100.029
2517.6135,100.029
2518.5779,100.028
2519.5420,100.029
2520.5063,100.031
2521.4705,100.037
2522.4348,100.042
2523.3989,100.046
2524.3633,100.045
2525.3274,100.04
2526.2917,100.034
2527.2559,100.03
2528.2202,100.03
2529.1843,100.033
2530.1487,100.039
2531.1128,100.045
2532.0771,100.049
2533.0413,100.05
2534.0056,100.05
2534.9697,100.047
2535.9341,100.044
2536.8982,100.042
2537.8625,100.041
2538.8267,100.043
2539.7910,100.045
2540.7551,100.049
2541.7195,100.051
2542.6836,100.053
2543.6479,100.054
2544.6121,100.055
2545.5764,100.056
2546.5405,100.058
2547.5049,100.059
2548.4690,100.058
2549.4333,100.055
2550.3975,100.051
2551.3618,100.046
2552.3259,100.043
2553.2903,100.042
2554.2544,100.043
2555.2188,100.046
2556.1829,100.048
2557.1472,100.051
2558.1113,100.055
2559.0757,100.059
2560.0398,100.063
2561.0042,100.067
2561.9683,100.07
2562.9326,100.07
2563.8967,100.067
2564.8611,100.062
2565.8252,100.057
2566.7896,100.055
2567.7537,100.056
2568.7180,100.061
2569.6821,100.067
2570.6465,100.072
2571.6106,100.073
2572.5750,100.072
2573.5391,100.069
2574.5034,100.068
2575.4675,100.07
2576.4319,100.075
2577.3960,100.082
2578.3604,100.088
2579.3245,100.091
2580.2888,100.09
2581.2529,100.086
2582.2173,100.079
2583.1814,100.073
2584.1458,100.069
2585.1099,100.068
2586.0742,100.068
2587.0383,100.07
2588.0027,100.073
2588.9668,100.075
2589.9312,100.077
2590.8953,100.078
2591.8596,100.08
2592.8237,100.08
2593.7881,100.079
2594.7522,100.076
2595.7166,100.072
2596.6807,100.07
2597.6450,100.07
2598.6091,100.074
2599.5735,100.081
2600.5376,100.091
2601.5020,100.102
2602.4661,100.11
2603.4304,100.115
2604.3945,100.116
2605.3589,100.114
2606.3230,100.109
2607.2874,100.104
2608.2515,100.1
2609.2158,100.097
2610.1799,100.096
2611.1443,100.096
2612.1084,100.096
2613.0728,100.097
2614.0369,100.098
2615.0012,100.101
2615.9653,100.105
2616.9297,100.11
2617.8938,100.115
2618.8582,100.118
2619.8223,100.12
2620.7866,100.121
2621.7507,100.122
2622.7151,100.123
2623.6792,100.124
2624.6436,100.125
2625.6077,100.123
2626.5720,100.12
2627.5361,100.115
2628.5005,100.111
2629.4646,100.109
2630.4290,100.109
2631.3931,100.111
2632.3574,100.112
2633.3215,100.114
2634.2859,100.115
2635.2500,100.117
2636.2144,100.12
2637.1785,100.123
2638.1428,100.126
2639.1069,100.129
2640.0713,100.131
2641.0354,100.133
2641.9998,100.134
2642.9639,100.133
2643.9282,100.131
2644.8923,100.129
2645.8567,100.127
2646.8208,100.126
2647.7852,100.128
2648.7493,100.13
2649.7136,100.133
2650.6777,100.135
2651.6421,100.136
2652.6062,100.137
2653.5706,100.136
2654.5347,100.135
2655.4990,100.133
2656.4631,100.132
2657.4275,100.133
2658.3916,100.135
2659.3560,100.139
2660.3201,100.142
2661.2844,100.145
2662.2485,100.146
2663.2129,100.147
2664.1770,100.149
2665.1414,100.151
2666.1055,100.154
2667.0698,100.157
2668.0339,100.16
2668.9983,100.162
2669.9624,100.163
2670.9268,100.162
2671.8909,100.158
2672.8552,100.154
2673.8193,100.15
2674.7837,100.149
2675.7478,100.153
2676.7122,100.159
2677.6763,100.164
2678.6406,100.167
2679.6047,100.167
2680.5691,100.165
2681.5332,100.163
2682.4976,100.162
2683.4617,100.16
2684.4260,100.156
2685.3901,100.152
2686.3545,100.147
2687.3186,100.143
2688.2830,100.14
2689.2471,100.139
2690.2114,100.137
2691.1755,100.133
2692.1399,100.129
2693.1040,100.126
2694.0684,100.126
2695.0325,100.131
2695.9968,100.137
2696.9609,100.143
2697.9253,100.146
2698.8894,100.145
2699.8538,100.141
2700.8179,100.135
2701.7822,100.13
2702.7463,100.126
2703.7107,100.125
2704.6748,100.125
2705.6392,100.125
2706.6033,100.123
2707.5676,100.118
2708.5317,100.111
2709.4961,100.103
2710.4602,100.098
2711.4246,100.095
2712.3887,100.097
2713.3530,100.1
2714.3171,100.105
2715.2815,100.11
2716.2456,100.117
2717.2100,100.124
2718.1741,100.131
2719.1384,100.135
2720.1025,100.135
2721.0669,100.129
2722.0310,100.119
2722.9954,100.108
2723.9595,100.097
2724.9238,100.089
2725.8879,100.085
2726.8523,100.084
2727.8164,100.087
2728.7808,100.09
2729.7449,100.093
2730.7092,100.094
2731.6733,100.093
2732.6377,100.091
2733.6018,100.09
2734.5662,100.09
2735.5303,100.092
2736.4946,100.094
2737.4587,100.096
2738.4231,100.096
2739.3872,100.096
2740.3516,100.096
2741.3157,100.098
2742.2800,100.102
2743.2441,100.106
2744.2085,100.112
2745.1726,100.116
2746.1370,100.118
2747.1011,100.119
2748.0654,100.118
2749.0295,100.117
2749.9939,100.12
2750.9580,100.127
2751.9224,100.138
2752.8865,100.15
2753.8508,100.16
2754.8149,100.165
2755.7793,100.165
2756.7434,100.161
2757.7078,100.157
2758.6719,100.156
2759.6362,100.158
2760.6003,100.163
2761.5647,100.169
2762.5288,100.172
2763.4932,100.172
2764.4573,100.17
2765.4216,100.169
2766.3857,100.17
2767.3501,100.176
2768.3142,100.183
2769.2786,100.19
2770.2427,100.192
2771.2070,100.187
2772.1711,100.175
2773.1355,100.16
2774.0996,100.146
2775.0640,100.136
2776.0281,100.131
2776.9924,100.13
2777.9565,100.131
2778.9209,100.132
2779.8850,100.13
2780.8494,100.128
2781.8135,100.125
2782.7778,100.125
2783.7419,100.126
2784.7063,100.129
2785.6704,100.13
2786.6348,100.128
2787.5989,100.119
2788.5632,100.106
2789.5273,100.089
2790.4917,100.074
2791.4558,100.063
2792.4202,100.058
2793.3843,100.059
2794.3486,100.062
2795.3127,100.065
2796.2771,100.063
2797.2412,100.056
2798.2056,100.045
2799.1697,100.031
2800.1340,100.018
2801.0981,100.005
2802.0625,99.9909
2803.0266,99.9646
2803.9910,99.9388
2804.9551,99.9133
2805.9194,99.8877
2806.8835,99.8604
2807.8479,99.8296
2808.8120,99.7941
2809.7764,99.7543
2810.7405,99.7123
2811.7048,99.671
2812.6689,99.6322
2813.6333,99.5955
2814.5974,99.5583
2815.5618,99.5178
2816.5259,99.4723
2817.4902,99.4219
2818.4543,99.3675
2819.4187,99.31
2820.3828,99.249
2821.3472,99.183
2822.3113,99.1107
2823.2756,99.0315
2824.2397,98.9458
2825.2041,98.8541
2826.1682,98.7567
2827.1326,98.6534
2828.0967,98.5442
2829.0610,98.4303
2830.0251,98.3139
2830.9895,98.1978
2831.9536,98.0851
2832.9180,97.9781
2833.8821,97.8783
2834.8464,97.7862
2835.8105,97.7017
2836.7749,97.6244
2837.7390,97.5547
2838.7034,97.4944
2839.6675,97.4465
2840.6318,97.4143
2841.5959,97.3993
2842.5603,97.4005
2843.5244,97.4143
2844.4888,97.4367
2845.4529,97.4659
2846.4172,97.5032
2847.3813,97.552
2848.3457,97.6147
2849.3098,97.6901
2850.2742,97.7726
2851.2383,97.8549
2852.2026,97.9302
2853.1667,97.9957
2854.1311,98.0524
2855.0952,98.1033
2856.0596,98.1515
2857.0237,98.1989
2857.9880,98.2462
2858.9521,98.294
2859.9165,98.3431
2860.8806,98.3942
2861.8450,98.4472
2862.8091,98.5003
2863.7734,98.5507
2864.7375,98.5964
2865.7019,98.6366
2866.6660,98.6733
2867.6304,98.7091
2868.5945,98.7456
2869.5588,98.7817
2870.5229,98.8134
2871.4873,98.8361
2872.4514,98.8472
2873.4158,98.8491
2874.3799,98.8481
2875.3442,98.8531
2876.3083,98.8713
2877.2727,98.9053
2878.2368,98.9529
2879.2012,99.0074
2880.1653,99.0604
2881.1296,99.104
2882.0938,99.133
2883.0581,99.1456
2884.0222,99.1434
2884.9866,99.1301
2885.9507,99.1108
2886.9150,99.0899
2887.8792,99.0712
2888.8435,99.0562
2889.8076,99.0441
2890.7720,99.0309
2891.7361,99.0116
2892.7004,98.9832
2893.6646,98.949
2894.6289,98.9204
2895.5930,98.9135
2896.5574,98.9397
2897.5215,98.9967
2898.4858,99.0648
2899.4500,99.1121
2900.4143,99.1083
2901.3784,99.0396
2902.3428,98.915
2903.3069,98.7621
2904.2712,98.6134
2905.2354,98.4936
2906.1997,98.4126
2907.1638,98.3661
2908.1282,98.3402
2909.0923,98.3171
2910.0566,98.2808
2911.0208,98.2208
2911.9851,98.1345
2912.9492,98.0287
2913.9136,97.9165
2914.8777,97.8124
2915.8420,97.7262
2916.8062,97.6597
2917.7705,97.6066
2918.7346,97.557
2919.6990,97.5018
2920.6631,97.4361
2921.6274,97.3594
2922.5916,97.2738
2923.5559,97.1814
2924.5200,97.0829
2925.4844,96.9765
2926.4485,96.8602
2927.4128,96.7333
2928.3770,96.5986
2929.3413,96.4626
2930.3054,96.3337
2931.2698,96.22
2932.2339,96.1264
2933.1982,96.0545
2934.1624,96.0038
2935.1267,95.9739
2936.0908,95.9657
2937.0552,95.9813
2938.0193,96.0217
2938.9836,96.0861
2939.9478,96.1705
2940.9121,96.2687
2941.8762,96.3744
2942.8406,96.4829
2943.8047,96.5926
2944.7690,96.7047
2945.7332,96.8224
2946.6975,96.9486
2947.6616,97.0842
2948.6260,97.2269
2949.5901,97.3719
2950.5544,97.5135
2951.5186,97.6475
2952.4829,97.7724
2953.4470,97.8891
2954.4114,97.9994
2955.3755,98.1047
2956.3398,98.2048
2957.3040,98.2984
2958.2683,98.3841
2959.2324,98.4618
2960.1968,98.5337
2961.1609,98.6036
2962.1252,98.6765
2963.0894,98.7563
2964.0537,98.8445
2965.0178,98.9389
2965.9822,99.0347
2966.9463,99.126
2967.9106,99.2081
2968.8748,99.2785
2969.8391,99.3365
2970.8032,99.3828
2971.7676,99.4181
2972.7317,99.4443
2973.6960,99.4648
2974.6602,99.4844
2975.6245,99.5081
2976.5886,99.5385
2977.5530,99.5747
2978.5171,99.6122
2979.4814,99.6466
2980.4456,99.6771
2981.4099,99.709
2982.3740,99.7531
2983.3384,99.8206
2984.3025,99.9168
2985.2668,100.038
2986.2310,100.15
2987.1953,100.221
2988.1594,100.222
2989.1238,100.144
2990.0879,100.003
2991.0522,99.8363
2992.0164,99.6814
2992.9807,99.5637
2993.9448,99.4867
2994.9092,99.4355
2995.8733,99.388
2996.8376,99.328
2997.8018,99.2523
2998.7661,99.1688
2999.7302,99.0888
3000.6946,99.0187
3001.6587,98.957
3002.6230,98.8963
3003.5872,98.8299
3004.5515,98.7559
3005.5156,98.6788
3006.4800,98.6064
3007.4441,98.545
3008.4084,98.4959
3009.3726,98.4544
3010.3369,98.4131
3011.3010,98.3652
3012.2654,98.3078
3013.2295,98.2424
3014.1938,98.1732
3015.1580,98.104
3016.1223,98.0373
3017.0864,97.9742
3018.0508,97.9149
3019.0149,97.8589
3019.9792,97.8055
3020.9434,97.7524
3021.9077,97.6972
3022.8718,97.6385
3023.8362,97.5777
3024.8003,97.5188
3025.7646,97.4676
3026.7288,97.4287
3027.6931,97.4026
3028.6572,97.3853
3029.6216,97.3692
3030.5857,97.3462
3031.5500,97.3114
3032.5142,97.2652
3033.4785,97.2134
3034.4426,97.1642
3035.4070,97.1243
3036.3711,97.096
3037.3354,97.077
3038.2996,97.0616
3039.2639,97.0442
3040.2280,97.0215
3041.1924,96.9937
3042.1565,96.964
3043.1208,96.9366
3044.0850,96.9146
3045.0493,96.8991
3046.0134,96.8888
3046.9778,96.8811
3047.9419,96.873
3048.9063,96.862
3049.8704,96.8469
3050.8347,96.8275
3051.7988,96.8046
3052.7632,96.7794
3053.7273,96.7542
3054.6917,96.7315
3055.6558,96.714
3056.6201,96.7029
3057.5842,96.6975
3058.5486,96.695
3059.5127,96.6922
3060.4771,96.687
3061.4412,96.6798
3062.4055,96.6727
3063.3696,96.6677
3064.3340,96.665
3065.2981,96.6622
3066.2625,96.6555
3067.2266,96.6428
3068.1909,96.6246
3069.1550,96.6049
3070.1194,96.5886
3071.0835,96.5793
3072.0479,96.5779
3073.0120,96.583
3073.9763,96.5913
3074.9404,96.5999
3075.9048,96.6066
3076.8689,96.6104
3077.8333,96.6116
3078.7974,96.6115
3079.7617,96.6117
3080.7258,96.613
3081.6902,96.6151
3082.6543,96.6161
3083.6187,96.6136
3084.5828,96.6062
3085.5471,96.5941
3086.5112,96.5785
3087.4756,96.5616
3088.4397,96.5454
3089.4041,96.5326
3090.3682,96.5259
3091.3325,96.5276
3092.2966,96.5382
3093.2610,96.5546
3094.2251,96.571
3095.1895,96.5815
3096.1536,96.5831
3097.1179,96.5777
3098.0820,96.5696
3099.0464,96.5625
3100.0105,96.5563
3100.9749,96.5479
3101.9390,96.5343
3102.9033,96.5162
3103.8674,96.498
3104.8318,96.4852
3105.7959,96.4802
3106.7603,96.4807
3107.7244,96.4814
3108.6887,96.4772
3109.6528,96.4672
3110.6172,96.4538
3111.5813,96.4411
3112.5457,96.4315
3113.5098,96.4246
3114.4741,96.4194
3115.4382,96.4151
3116.4026,96.4129
3117.3667,96.4138
3118.3311,96.4173
3119.2952,96.4203
3120.2595,96.4182
3121.2236,96.4082
3122.1880,96.3905
3123.1521,96.3685
3124.1165,96.3465
3125.0806,96.3276
3126.0449,96.3123
3127.0090,96.3003
3127.9734,96.2916
3128.9375,96.2871
3129.9019,96.2879
3130.8660,96.2932
3131.8303,96.2998
3132.7944,96.3029
3133.7588,96.2989
3134.7229,96.2868
3135.6873,96.2691
3136.6514,96.2494
3137.6157,96.2309
3138.5798,96.2152
3139.5442,96.2026
3140.5083,96.1923
3141.4727,96.1832
3142.4368,96.1742
3143.4011,96.164
3144.3652,96.1524
3145.3296,96.1407
3146.2937,96.1313
3147.2581,96.127
3148.2222,96.1281
3149.1865,96.1323
3150.1506,96.1347
3151.1150,96.1307
3152.0791,96.1184
3153.0435,96.0997
3154.0076,96.0791
3154.9719,96.0611
3155.9360,96.0476
3156.9004,96.0373
3157.8645,96.0266
3158.8289,96.012
3159.7930,95.9927
3160.7573,95.9714
3161.7214,95.9531
3162.6858,95.9425
3163.6499,95.9412
3164.6143,95.947
3165.5784,95.9541
3166.5427,95.9569
3167.5068,95.9515
3168.4712,95.938
3169.4353,95.8435
3170.3997,95.8248
3171.3638,95.8102
3172.3281,95.8016
3173.2922,95.7985
3174.2566,95.7988
3175.2207,95.7988
3176.1851,95.7943
3177.1492,95.7823
3178.1135,95.7625
3179.0776,95.7379
3180.0420,95.7138
3181.0061,95.6955
3181.9705,95.6854
3182.9346,95.6826
3183.8989,95.6838
3184.8630,95.6856
3185.8274,95.6858
3186.7915,95.684
3187.7559,95.6802
3188.7200,95.6733
3189.6843,95.6618
3190.6484,95.6443
3191.6128,95.6218
3192.5769,95.5978
3193.5413,95.5768
3194.5054,95.5617
3195.4697,95.5523
3196.4338,95.546
3197.3982,95.5398
3198.3623,95.533
3199.3267,95.5276
3200.2908,95.5264
3201.2551,95.5297
3202.2192,95.5343
3203.1836,95.5342
3204.1477,95.5248
3205.1121,95.5056
3206.0762,95.4811
3207.0405,95.4582
3208.0046,95.4428
3208.9690,95.436
3209.9331,95.434
3210.8975,95.4308
3211.8616,95.4221
3212.8259,95.4077
3213.7900,95.3915
3214.7544,95.3786
3215.7185,95.3726
3216.6829,95.3733
3217.6470,95.3775
3218.6113,95.3802
3219.5754,95.3774
3220.5398,95.3672
3221.5039,95.3501
3222.4683,95.3282
3223.4324,95.3047
3224.3967,95.2836
3225.3608,95.2691
3226.3252,95.2649
3227.2893,95.2722
3228.2537,95.2882
3229.2178,95.307
3230.1821,95.3214
3231.1462,95.326
3232.1106,95.32
3233.0747,95.3061
3234.0391,95.2889
3235.0032,95.2716
3235.9675,95.2548
3236.9316,95.2374
3237.8960,95.2185
3238.8601,95.1987
3239.8245,95.1802
3240.7886,95.1656
3241.7529,95.1562
3242.7170,95.1513
3243.6814,95.1493
3244.6455,95.1477
3245.6099,95.1444
3246.5740,95.1374
3247.5383,95.1251
3248.5024,95.1075
3249.4668,95.0869
3250.4309,95.0683
3251.3953,95.0576
3252.3594,95.058
3253.3237,95.0675
3254.2878,95.0782
3255.2522,95.0803
3256.2163,95.0672
3257.1807,95.039
3258.1448,95.0023
3259.1091,94.9664
3260.0732,94.9387
3261.0376,94.9216
3262.0017,94.9124
3262.9661,94.9061
3263.9302,94.8986
3264.8945,94.8884
3265.8586,94.8763
3266.8230,94.8641
3267.7871,94.8534
3268.7515,94.8443
3269.7156,94.8366
3270.6799,94.8299
3271.6440,94.8242
3272.6084,94.82
3273.5725,94.8174
3274.5369,94.8159
3275.5010,94.8143
3276.4653,94.8114
3277.4294,94.8063
3278.3938,94.7988
3279.3579,94.7892
3280.3223,94.7783
3281.2864,94.7666
3282.2507,94.7553
3283.2148,94.7454
3284.1792,94.7379
3285.1433,94.733
3286.1077,94.7296
3287.0718,94.7254
3288.0361,94.7181
3289.0002,94.7065
3289.9646,94.6917
3290.9287,94.6765
3291.8931,94.6639
3292.8572,94.655
3293.8215,94.649
3294.7856,94.6434
3295.7500,94.6363
3296.7141,94.6279
3297.6785,94.6208
3298.6426,94.6182
3299.6069,94.6216
3300.5710,94.629
3301.5354,94.6356
3302.4995,94.6362
3303.4639,94.6284
3304.4280,94.6142
3305.3923,94.5985
3306.3564,94.5859
3307.3208,94.5775
3308.2849,94.5704
3309.2493,94.5605
3310.2134,94.5456
3311.1777,94.5277
3312.1418,94.5113
3313.1062,94.4997
3314.0703,94.493
3315.0347,94.4876
3315.9988,94.4799
3316.9631,94.4686
3317.9272,94.4566
3318.8916,94.4486
3319.8557,94.4478
3320.8201,94.4537
3321.7842,94.4616
3322.7485,94.4655
3323.7126,94.4613
3324.6770,94.4486
3325.6411,94.4311
3326.6055,94.4136
3327.5696,94.3996
3328.5339,94.3899
3329.4980,94.3831
3330.4624,94.3765
3331.4265,94.3692
3332.3909,94.3618
3333.3550,94.357
3334.3193,94.357
3335.2834,94.3632
3336.2478,94.3749
3337.2119,94.3901
3338.1763,94.4061
3339.1404,94.4197
3340.1047,94.4277
3341.0688,94.4279
3342.0332,94.4205
3342.9973,94.4088
3343.9617,94.398
3344.9258,94.3927
3345.8901,94.3938
3346.8542,94.3975
3347.8186,94.397
3348.7827,94.3861
3349.7471,94.3627
3350.7112,94.3303
3351.6755,94.2956
3352.6396,94.2657
3353.6040,94.246
3354.5681,94.2385
3355.5325,94.2423
3356.4966,94.2538
3357.4609,94.2673
3358.4250,94.277
3359.3894,94.2788
3360.3535,94.2725
3361.3179,94.262
3362.2820,94.2532
3363.2463,94.2511
3364.2104,94.2564
3365.1748,94.2654
3366.1389,94.2724
3367.1033,94.2729
3368.0674,94.2665
3369.0317,94.2565
3369.9958,94.2483
3370.9602,94.2466
3371.9243,94.2536
3372.8887,94.2679
3373.8528,94.2848
3374.8171,94.2978
3375.7813,94.3008
3376.7456,94.2905
3377.7097,94.268
3378.6741,94.2387
3379.6382,94.2101
3380.6025,94.1888
3381.5667,94.1787
3382.5310,94.18
3383.4951,94.1896
3384.4595,94.2028
3385.4236,94.2154
3386.3879,94.2251
3387.3521,94.2319
3388.3164,94.2374
3389.2805,94.243
3390.2449,94.2485
3391.2090,94.2508
3392.1733,94.2455
3393.1375,94.2299
3394.1018,94.2054
3395.0659,94.1779
3396.0303,94.1545
3396.9944,94.1405
3397.9587,94.1361
3398.9229,94.1377
3399.8872,94.14
3400.8513,94.1397
3401.8157,94.1367
3402.7798,94.1328
3403.7441,94.1293
3404.7083,94.1251
3405.6726,94.118
3406.6367,94.1067
3407.6011,94.0928
3408.5652,94.0804
3409.5295,94.0737
3410.4937,94.0741
3411.4580,94.0786
3412.4221,94.0818
3413.3865,94.079
3414.3506,94.0692
3415.3149,94.0562
3416.2791,94.0463
3417.2434,94.0451
3418.2075,94.0538
3419.1719,94.0686
3420.1360,94.0828
3421.1003,94.0911
3422.0645,94.0927
3423.0288,94.0914
3423.9929,94.0929
3424.9573,94.1012
3425.9214,94.1169
3426.8857,94.1361
3427.8499,94.152
3428.8142,94.1579
3429.7783,94.1511
3430.7427,94.1348
3431.7068,94.117
3432.6711,94.1069
3433.6353,94.1096
3434.5996,94.1235
3435.5637,94.1413
3436.5281,94.1545
3437.4922,94.158
3438.4565,94.1511
3439.4207,94.1367
3440.3850,94.1182
3441.3491,94.0983
3442.3135,94.0808
3443.2776,94.0722
3444.2419,94.0801
3445.2061,94.1092
3446.1704,94.1552
3447.1345,94.2041
3448.0989,94.2394
3449.0630,94.2517
3450.0273,94.2435
3450.9915,94.2267
3451.9558,94.2159
3452.9199,94.2202
3453.8843,94.2392
3454.8484,94.2638
3455.8127,94.2831
3456.7769,94.2909
3457.7412,94.2896
3458.7053,94.2873
3459.6697,94.2924
3460.6338,94.3086
3461.5981,94.3341
3462.5623,94.3631
3463.5266,94.3905
3464.4907,94.4139
3465.4551,94.4334
3466.4192,94.4493
3467.3835,94.4603
3468.3477,94.4635
3469.3120,94.4577
3470.2761,94.4454
3471.2405,94.4337
3472.2046,94.4316
3473.1689,94.4446
3474.1331,94.4713
3475.0974,94.5042
3476.0615,94.5342
3477.0259,94.557
3477.9900,94.5746
3478.9543,94.5926
3479.9185,94.6142
3480.8828,94.6366
3481.8469,94.6527
3482.8113,94.6583
3483.7754,94.6554
3484.7397,94.6519
3485.7039,94.6558
3486.6682,94.6704
3487.6323,94.692
3488.5967,94.713
3489.5608,94.7277
3490.5251,94.7364
3491.4893,94.7451
3492.4536,94.7613
3493.4177,94.7893
3494.3821,94.8261
3495.3462,94.8623
3496.3105,94.8877
3497.2747,94.898
3498.2390,94.8982
3499.2031,94.9007
3500.1675,94.9197
3501.1316,94.9611
3502.0959,95.0163
3503.0601,95.0655
3504.0244,95.0922
3504.9885,95.0931
3505.9529,95.0781
3506.9170,95.0636
3507.8813,95.0659
3508.8455,95.0931
3509.8098,95.1417
3510.7739,95.1989
3511.7383,95.2512
3512.7024,95.2899
3513.6667,95.3122
3514.6309,95.3203
3515.5952,95.3194
3516.5593,95.3164
3517.5237,95.3185
3518.4878,95.3316
3519.4521,95.3588
3520.4163,95.3995
3521.3806,95.4488
3522.3447,95.4999
3523.3091,95.5481
3524.2732,95.5949
3525.2375,95.6458
3526.2017,95.7044
3527.1660,95.7666
3528.1301,95.8207
3529.0945,95.8556
3530.0586,95.8683
3531.0229,95.8652
3531.9871,95.8585
3532.9514,95.8608
3533.9155,95.8813
3534.8799,95.9219
3535.8440,95.9765
3536.8083,96.0344
3537.7725,96.0856
3538.7368,96.1252
3539.7009,96.1539
3540.6653,96.1789
3541.6294,96.2149
3542.5938,96.2793
3543.5579,96.3791
3544.5222,96.4986
3545.4863,96.6035
3546.4507,96.6653
3547.4148,96.6808
3548.3792,96.6679
3549.3433,96.6538
3550.3076,96.6646
3551.2717,96.7158
3552.2361,96.8031
3553.2002,96.9045
3554.1646,96.995
3555.1287,97.0618
3556.0930,97.1087
3557.0571,97.1503
3558.0215,97.2
3558.9856,97.2575
3559.9500,97.3044
3560.9141,97.3166
3561.8784,97.2839
3562.8425,97.2268
3563.8069,97.1981
3564.7710,97.2566
3565.7354,97.4086
3566.6995,97.5777
3567.6638,97.6795
3568.6279,97.7074
3569.5923,97.6982
3570.5564,97.6736
3571.5208,97.6418
3572.4849,97.6166
3573.4492,97.6175
3574.4133,97.6567
3575.3777,97.7306
3576.3418,97.8245
3577.3062,97.9216
3578.2703,98.0072
3579.2346,98.0656
3580.1987,98.0791
3581.1631,98.0333
3582.1272,97.9294
3583.0916,97.7964
3584.0557,97.6972
3585.0200,97.7078
3585.9841,97.8575
3586.9485,98.0749
3587.9126,98.2398
3588.8770,98.2986
3589.8411,98.275
3590.8054,98.2107
3591.7695,98.1436
3592.7339,98.1076
3593.6980,98.1207
3594.6624,98.1726
3595.6265,98.2389
3596.5908,98.3076
3597.5549,98.3858
3598.5193,98.4821
3599.4834,98.5862
3600.4478,98.6659
3601.4119,98.6871
3602.3762,98.6371
3603.3403,98.5312
3604.3047,98.4063
3605.2688,98.3085
3606.2332,98.2721
3607.1973,98.297
3608.1616,98.3517
3609.1257,98.4068
3610.0901,98.4585
3611.0542,98.5143
3612.0186,98.5693
3612.9829,98.6011
3613.9470,98.5877
3614.9114,98.5324
3615.8755,98.4738
3616.8398,98.4715
3617.8040,98.5659
3618.7683,98.7354
3619.7324,98.9041
3620.6968,99.0055
3621.6609,99.0132
3622.6252,98.9181
3623.5894,98.7211
3624.5537,98.4623
3625.5178,98.247
3626.4822,98.2241
3627.4463,98.4666
3628.4106,98.8336
3629.3748,99.0884
3630.3391,99.1685
3631.3032,99.1515
3632.2676,99.0982
3633.2317,99.0348
3634.1960,98.9841
3635.1602,98.9688
3636.1245,99.0008
3637.0886,99.0755
3638.0530,99.177
3639.0171,99.2848
3639.9814,99.3749
3640.9456,99.4187
3641.9099,99.3873
3642.8740,99.2644
3643.8384,99.0671
3644.8025,98.8738
3645.7668,98.8458
3646.7310,99.1864
3647.6953,99.9146
3648.6594,100.591
3649.6238,100.73
3650.5879,100.448
3651.5522,100.083
3652.5164,99.772
3653.4807,99.5356
3654.4448,99.4012
3655.4092,99.4068
3656.3733,99.5493
3657.3376,99.7678
3658.3018,99.9859
3659.2661,100.155
3660.2302,100.265
3661.1946,100.321
3662.1587,100.33
3663.1230,100.284
3664.0872,100.17
3665.0515,99.9978
3666.0156,99.8246
3666.9800,99.7488
3667.9441,99.8453
3668.9084,100.058
3669.8726,100.204
3670.8369,100.155
3671.8010,99.9563
3672.7654,99.7604
3673.7295,99.7294
3674.6938,99.9261
3675.6580,100.23
3676.6223,100.455
3677.5864,100.542
3678.5508,100.536
3679.5149,100.476
3680.4792,100.381
3681.4434,100.257
3682.4077,100.098
3683.3718,99.8955
3684.3362,99.6573
3685.3003,99.4386
3686.2646,99.3548
3687.2288,99.5336
3688.1931,99.9758
3689.1572,100.456
3690.1216,100.712
3691.0857,100.709
3692.0500,100.556
3693.0142,100.347
3693.9785,100.125
3694.9426,99.9042
3695.9070,99.6945
3696.8711,99.5108
3697.8354,99.3791
3698.7996,99.3368
3699.7639,99.4136
3700.7280,99.5968
3701.6924,99.814
3702.6565,99.9674
3703.6208,99.9919
3704.5850,99.8755
3705.5493,99.6459
3706.5134,99.3642
3707.4778,99.1286
3708.4419,99.0588
3709.4063,99.2236
3710.3704,99.5379
3711.3347,99.7995
3712.2988,99.9004
3713.2632,99.885
3714.2273,99.8168
3715.1917,99.7179
3716.1558,99.5993
3717.1201,99.4891
3718.0842,99.4299
3719.0486,99.457
3720.0127,99.578
3720.9771,99.772
3721.9412,100.006
3722.9055,100.246
3723.8696,100.455
3724.8340,100.589
3725.7981,100.615
3726.7625,100.523
3727.7266,100.326
3728.6909,100.058
3729.6550,99.7701
3730.6194,99.5511
3731.5835,99.5243
3732.5479,99.8078
3733.5120,100.402
3734.4763,101.077
3735.4404,101.5
3736.4048,101.557
3737.3689,101.362
3738.3333,101.028
3739.2974,100.588
3740.2617,100.073
3741.2258,99.574
3742.1902,99.2475
3743.1543,99.218
3744.1187,99.4351
3745.0828,99.6926
3746.0471,99.8343
3747.0112,99.8553
3747.9756,99.853
3748.9397,99.9419
3749.9041,100.127
3750.8682,100.248
3751.8325,100.18
3752.7966,99.9866
3753.7610,99.7562
3754.7251,99.5232
3755.6895,99.3168
3756.6536,99.1896
3757.6179,99.1807
3758.5820,99.2673
3759.5464,99.3741
3760.5105,99.4345
3761.4749,99.4261
3762.4390,99.3625
3763.4033,99.2749
3764.3674,99.1971
3765.3318,99.1536
3766.2959,99.1537
3767.2603,99.1947
3768.2244,99.2667
3769.1887,99.3518
3770.1528,99.4245
3771.1172,99.4591
3772.0813,99.4377
3773.0457,99.3539
3774.0098,99.2176
3774.9741,99.0635
3775.9382,98.9505
3776.9026,98.9387
3777.8667,99.0444
3778.8311,99.2179
3779.7952,99.3795
3780.7595,99.4783
3781.7236,99.5106
3782.6880,99.4985
3783.6521,99.4664
3784.6165,99.4289
3785.5806,99.3912
3786.5449,99.3549
3787.5090,99.3216
3788.4734,99.2917
3789.4375,99.2613
3790.4019,99.2264
3791.3660,99.1913
3792.3303,99.1734
3793.2944,99.1953
3794.2588,99.2649
3795.2229,99.3607
3796.1873,99.4406
3797.1514,99.4758
3798.1157,99.4749
3799.0798,99.4715
3800.0442,99.4763
3801.0083,99.4495
3801.9727,99.3465
3802.9368,99.1787
3803.9011,99.0046
3804.8652,98.8934
3805.8296,98.9003
3806.7937,99.0331
3807.7581,99.2321
3808.7222,99.4047
3809.6865,99.479
3810.6506,99.4293
3811.6150,99.2861
3812.5791,99.1334
3813.5435,99.0723
3814.5076,99.1463
3815.4719,99.2916
3816.4360,99.3967
3817.4004,99.4119
3818.3645,99.3763
3819.3289,99.3559
3820.2930,99.3743
3821.2573,99.4038
3822.2214,99.4194
3823.1858,99.4243
3824.1499,99.4277
3825.1143,99.4347
3826.0784,99.4517
3827.0427,99.4848
3828.0068,99.5313
3828.9712,99.5781
3829.9353,99.6063
3830.8997,99.5972
3831.8638,99.5363
3832.8281,99.4204
3833.7922,99.267
3834.7566,99.12
3835.7207,99.0399
3836.6851,99.0711
3837.6492,99.2045
3838.6135,99.381
3839.5776,99.5423
3840.5420,99.6703
3841.5061,99.7735
3842.4705,99.861
3843.4346,99.9291
3844.3989,99.9596
3845.3630,99.9224
3846.3274,99.7815
3847.2915,99.5082
3848.2559,99.1054
3849.2200,98.6439
3850.1843,98.299
3851.1484,98.3306
3852.1128,98.8742
3853.0769,99.6153
3854.0413,100.054
3855.0054,100.139
3855.9697,100.062
3856.9338,99.9097
3857.8982,99.6896
3858.8623,99.4285
3859.8267,99.1973
3860.7908,99.0882
3861.7551,99.1563
3862.7192,99.3608
3863.6836,99.5752
3864.6477,99.6833
3865.6121,99.6547
3866.5762,99.5367
3867.5405,99.409
3868.5046,99.3454
3869.4690,99.3806
3870.4331,99.4924
3871.3975,99.6199
3872.3616,99.7073
3873.3259,99.7276
3874.2900,99.6784
3875.2544,99.5735
3876.2185,99.4432
3877.1829,99.3349
3878.1470,99.2997
3879.1113,99.3628
3880.0754,99.4972
3881.0398,99.6358
3882.0039,99.7181
3882.9683,99.7237
3883.9324,99.6653
3884.8967,99.5636
3885.8608,99.4359
3886.8252,99.2998
3887.7893,99.1818
3888.7537,99.1256
3889.7178,99.184
3890.6821,99.3762
3891.6462,99.6408
3892.6106,99.8593
3893.5747,99.9421
3894.5391,99.8708
3895.5032,99.6813
3896.4675,99.4424
3897.4316,99.2378
3898.3960,99.1357
3899.3601,99.1578
3900.3245,99.2788
3901.2886,99.4538
3902.2529,99.6383
3903.2170,99.7898
3904.1814,99.8774
3905.1455,99.8981
3906.1099,99.8703
3907.0740,99.8143
3908.0383,99.746
3909.0024,99.6783
3909.9668,99.6201
3910.9309,99.5729
3911.8953,99.5327
3912.8594,99.4987
3913.8237,99.4823
3914.7878,99.5042
3915.7522,99.5774
3916.7163,99.6866
3917.6807,99.7905
3918.6448,99.85
3919.6091,99.853
3920.5732,99.8136
3921.5376,99.7592
3922.5017,99.7166
3923.4661,99.6987
3924.4302,99.6977
3925.3945,99.6942
3926.3586,99.674
3927.3230,99.6394
3928.2871,99.6108
3929.2515,99.6176
3930.2156,99.6793
3931.1799,99.7859
3932.1440,99.8994
3933.1084,99.979
3934.0725,100.003
3935.0369,99.9676
3936.0010,99.8832
3936.9653,99.7664
3937.9294,99.6418
3938.8938,99.5404
3939.8579,99.4926
3940.8223,99.515
3941.7864,99.5982
3942.7507,99.7073
3943.7148,99.8008
3944.6792,99.8533
3945.6433,99.8647
3946.6077,99.8554
3947.5718,99.8503
3948.5361,99.8623
3949.5002,99.8854
3950.4646,99.9014
3951.4287,99.8952
3952.3931,99.8639
3953.3572,99.8166
3954.3215,99.7692
3955.2856,99.7366
3956.2500,99.7279
3957.2141,99.7453
3958.1785,99.7867
3959.1426,99.8465
3960.1069,99.9152
3961.0710,99.9785
3962.0354,100.021
3962.9995,100.031
3963.9639,100.009
3964.9280,99.966
3965.8923,99.9185
3966.8564,99.8807
3967.8208,99.8603
3968.7849,99.8573
3969.7493,99.867
3970.7134,99.8853
3971.6777,99.9102
3972.6418,99.941
3973.6062,99.9748
3974.5703,100.005
3975.5347,100.024
3976.4988,100.026
3977.4631,100.013
3978.4272,99.9902
3979.3916,99.968
3980.3557,99.9532
3981.3201,99.9478
3982.2842,99.9483
3983.2485,99.9489
3984.2126,99.945
3985.1770,99.9371
3986.1411,99.9299
3987.1055,99.9301
3988.0696,99.942
3989.0339,99.9648
3989.9980,99.9924
3990.9624,100.017
3991.9265,100.032
3992.8909,100.038
3993.8550,100.04
3994.8193,100.042
3995.7834,100.047
3996.7478,100.051
3997.7119,100.052
3998.6763,100.048
3999.6404,100.039
4000.6047,100.193

##### Extended Information
[Comments]
Sample name
Comment
User
Division
Company,HANKYONG

[Detailed Information]
Creation date,4/24/2024 3:19 PM

Data array type,Linear data array
Horizontal axis,Wavenumber [cm-1]
Vertical axis,%T
Start,649.893 cm-1
End,4000.6 cm-1
Data interval,0.964233 cm-1
Data points,3476    

[Measurement Information]
Model Name,FT/IR-4700typeA
Serial Number,D056761788

Accessory,ATR PRO ONE
Accessory S/N,C174761809
Incident angle,45 deg

Measurement Date,4/24/2024 3:19 PM

Light Source,Standard
Detector,TGS
Accumulation,32
Resolution,4 cm-1
Zero Filling,On
Apodization,Cosine
Gain,Auto (4)
Aperture,Auto (7.1 mm)
Scanning Speed,Auto (2 mm/sec)
Filter,Auto (30000 Hz)

