TITLE,
DATA TYPE,INFRARED SPECTRUM
ORIGIN,JASCO
OWNER,
DATE,24/04/24
TIME,14:24:11
SPECTROMETER/DATA SYSTEM,
LOCALE,1033
RESOLUTION,
DELTAX,0.964233
XUNITS,1/CM
YUNITS,TRANSMITTANCE
FIRSTX,  649.8934
LASTX, 4000.6047
NPOINTS,    3476
FIRSTY,    98.74929
MAXY,   100.71198
MINY,    76.96031
XYDATA
649.8934,98.7493
650.8576,98.6977
651.8218,98.6929
652.7861,98.7238
653.7503,98.7721
654.7145,98.8293
655.6788,98.8889
656.6430,98.9408
657.6072,98.9752
658.5715,98.9959
659.5357,99.0281
660.4999,99.1039
661.4642,99.2294
662.4284,99.3619
663.3926,99.4183
664.3569,99.2968
665.3211,98.8917
666.2853,98.13
667.2496,97.1046
668.2138,96.252
669.1780,96.0885
670.1423,96.5767
671.1065,97.2715
672.0707,97.8555
673.0350,98.2276
673.9992,98.3954
674.9634,98.4088
675.9277,98.3373
676.8919,98.2502
677.8561,98.196
678.8204,98.1945
679.7846,98.2454
680.7488,98.3383
681.7131,98.4563
682.6773,98.5786
683.6415,98.6869
684.6058,98.7738
685.5700,98.8434
686.5342,98.904
687.4985,98.9575
688.4627,98.9936
689.4269,98.9931
690.3912,98.9405
691.3554,98.844
692.3196,98.755
693.2839,98.7567
694.2481,98.8995
695.2123,99.1522
696.1766,99.4417
697.1408,99.7094
698.1050,99.9253
699.0693,100.079
700.0335,100.174
700.9977,100.222
701.9620,100.235
702.9262,100.227
703.8904,100.212
704.8547,100.199
705.8189,100.197
706.7831,100.206
707.7474,100.218
708.7116,100.226
709.6758,100.225
710.6401,100.22
711.6043,100.221
712.5685,100.232
713.5328,100.245
714.4970,100.231
715.4612,100.325
716.4255,100.17
717.3897,99.9589
718.3539,99.7505
719.3182,99.6073
720.2824,99.5658
721.2466,99.6238
722.2109,99.7342
723.1751,99.8357
724.1393,99.8851
725.1036,99.8722
726.0678,99.8122
727.0320,99.7276
727.9963,99.6628
728.9605,99.6251
729.9247,99.5807
730.8890,99.5341
731.8532,99.4971
732.8174,99.4825
733.7817,99.4941
734.7459,99.5224
735.7101,99.5484
736.6744,99.5532
737.6386,99.5278
738.6028,99.4769
739.5671,99.4167
740.5313,99.3681
741.4955,99.3473
742.4598,99.3592
743.4240,99.3946
744.3882,99.4333
745.3525,99.4526
746.3167,99.4375
747.2809,99.3866
748.2452,99.3114
749.2094,99.2303
750.1736,99.1583
751.1379,99.1018
752.1021,99.057
753.0663,99.0145
754.0306,98.9646
754.9948,98.902
755.9590,98.827
756.9233,98.744
757.8875,98.6602
758.8517,98.5835
759.8160,98.5201
760.7802,98.4737
761.7444,98.4435
762.7087,98.4249
763.6729,98.4117
764.6371,98.3995
765.6014,98.3891
766.5656,98.3865
767.5298,98.4
768.4941,98.4353
769.4583,98.4909
770.4225,98.5573
771.3868,98.6199
772.3510,98.6636
773.3152,98.6791
774.2795,98.6656
775.2437,98.6305
776.2079,98.5871
777.1722,98.549
778.1364,98.5258
779.1006,98.5197
780.0649,98.5258
781.0291,98.535
781.9933,98.5388
782.9576,98.5324
783.9218,98.5156
784.8860,98.4903
785.8503,98.4577
786.8145,98.4172
787.7787,98.3682
788.7430,98.3129
789.7072,98.2577
790.6714,98.2108
791.6357,98.1776
792.5999,98.1571
793.5641,98.1408
794.5284,98.1162
795.4926,98.0722
796.4568,98.004
797.4211,97.9156
798.3853,97.8176
799.3495,97.7228
800.3138,97.6408
801.2780,97.5741
802.2422,97.5182
803.2065,97.4654
804.1707,97.41
805.1349,97.3516
806.0992,97.2953
807.0634,97.2467
808.0276,97.2074
808.9919,97.173
809.9561,97.1357
810.9203,97.0899
811.8846,97.0361
812.8488,96.9808
813.8130,96.9329
814.7773,96.8988
815.7415,96.8791
816.7057,96.869
817.6700,96.8609
818.6342,96.848
819.5984,96.8261
820.5627,96.7947
821.5269,96.7567
822.4911,96.7173
823.4554,96.6823
824.4196,96.6571
825.3839,96.6452
826.3481,96.6485
827.3123,96.6664
828.2766,96.6967
829.2408,96.735
830.2050,96.7754
831.1693,96.8112
832.1335,96.8367
833.0977,96.8491
834.0620,96.8488
835.0262,96.8394
835.9904,96.8262
836.9547,96.8141
837.9189,96.8067
838.8831,96.8048
839.8474,96.8065
840.8116,96.8071
841.7758,96.8013
842.7401,96.7853
843.7043,96.7598
844.6685,96.7293
845.6328,96.7013
846.5970,96.682
847.5612,96.6738
848.5255,96.6741
849.4897,96.6774
850.4539,96.678
851.4182,96.6724
852.3824,96.6597
853.3466,96.6401
854.3109,96.6141
855.2751,96.5818
856.2393,96.544
857.2036,96.5026
858.1678,96.4613
859.1320,96.4239
860.0963,96.3936
861.0605,96.3723
862.0247,96.3612
862.9890,96.3619
863.9532,96.3762
864.9174,96.4037
865.8817,96.4399
866.8459,96.4761
867.8101,96.5033
868.7744,96.518
869.7386,96.5257
870.7028,96.5387
871.6671,96.5671
872.6313,96.6092
873.5955,96.6486
874.5598,96.6612
875.5240,96.629
876.4882,96.5522
877.4525,96.4514
878.4167,96.3567
879.3809,96.2931
880.3452,96.2703
881.3094,96.2834
882.2736,96.3211
883.2379,96.3747
884.2021,96.44
885.1663,96.5122
886.1306,96.5817
887.0948,96.6336
888.0590,96.6553
889.0233,96.6439
889.9875,96.6091
890.9517,96.5672
891.9160,96.5321
892.8802,96.5084
893.8444,96.4914
894.8087,96.472
895.7729,96.4433
896.7371,96.4028
897.7014,96.3514
898.6656,96.2911
899.6298,96.2237
900.5941,96.1515
901.5583,96.0778
902.5225,96.007
903.4868,95.9431
904.4510,95.889
905.4152,95.8462
906.3795,95.8157
907.3437,95.7984
908.3079,95.795
909.2722,95.806
910.2364,95.8324
911.2006,95.8773
912.1649,95.9461
913.1291,96.0464
914.0933,96.1842
915.0576,96.3615
916.0218,96.5745
916.9860,96.815
917.9503,97.0728
918.9145,97.3391
919.8787,97.6075
920.8430,97.8745
921.8072,98.1381
922.7714,98.3973
923.7357,98.6509
924.6999,98.8963
925.6641,99.1292
926.6284,99.3424
927.5926,99.5283
928.5568,99.6808
929.5211,99.7974
930.4853,99.8807
931.4495,99.9363
932.4138,99.9712
933.3780,99.9913
934.3422,100
935.3065,100
936.2707,99.9924
937.2349,99.9769
938.1992,99.9538
939.1634,99.94
940.1276,99.9547
941.0919,99.9629
942.0561,99.965
943.0203,99.9624
943.9846,99.9563
944.9488,99.9457
945.9130,99.9307
946.8773,99.9113
947.8415,99.8876
948.8057,99.8599
949.7700,99.8282
950.7342,99.7933
951.6984,99.7557
952.6627,99.716
953.6269,99.6739
954.5911,99.6274
955.5554,99.5734
956.5196,99.5081
957.4838,99.4298
958.4481,99.3396
959.4123,99.2419
960.3765,99.1425
961.3408,99.0472
962.3050,98.9594
963.2692,98.8804
964.2335,98.8095
965.1977,98.7454
966.1619,98.6861
967.1262,98.6292
968.0904,98.5718
969.0546,98.5117
970.0189,98.4477
970.9831,98.3804
971.9473,98.3112
972.9116,98.2408
973.8758,98.1682
974.8400,98.0908
975.8043,98.0056
976.7685,97.9102
977.7327,97.8031
978.6970,97.6837
979.6612,97.5519
980.6254,97.4079
981.5897,97.2523
982.5539,97.0868
983.5181,96.9136
984.4824,96.7348
985.4466,96.5516
986.4108,96.3644
987.3751,96.1727
988.3393,95.9752
989.3035,95.7702
990.2678,95.5553
991.2320,95.3276
992.1962,95.0835
993.1605,94.8185
994.1247,94.5284
995.0889,94.2099
996.0532,93.8623
997.0174,93.4887
997.9816,93.0946
998.9459,92.6861
999.9101,92.2674
1000.8743,91.8392
1001.8386,91.3998
1002.8028,90.9469
1003.7670,90.4793
1004.7313,89.9972
1005.6955,89.5012
1006.6597,88.9912
1007.6240,88.4665
1008.5882,87.9274
1009.5524,87.3769
1010.5167,86.8215
1011.4809,86.2713
1012.4451,85.7381
1013.4094,85.2315
1014.3736,84.7563
1015.3378,84.312
1016.3021,83.8963
1017.2663,83.5099
1018.2305,83.1596
1019.1948,82.8527
1020.1590,82.5857
1021.1232,82.3342
1022.0875,82.0559
1023.0517,81.7105
1024.0160,81.2874
1024.9802,80.8241
1025.9445,80.3974
1026.9087,80.0903
1027.8729,79.9488
1028.8372,79.9577
1029.8014,80.0478
1030.7656,80.1306
1031.7299,80.1405
1032.6941,80.0586
1033.6583,79.9113
1034.6226,79.7488
1035.5868,79.6194
1036.5510,79.5532
1037.5153,79.5566
1038.4795,79.6162
1039.4437,79.7057
1040.4080,79.7945
1041.3722,79.8567
1042.3364,79.8784
1043.3007,79.8602
1044.2649,79.8133
1045.2291,79.7505
1046.1934,79.6803
1047.1576,79.6056
1048.1218,79.5294
1049.0861,79.4594
1050.0503,79.4069
1051.0145,79.3795
1051.9788,79.3731
1052.9430,79.3734
1053.9072,79.3686
1054.8715,79.366
1055.8357,79.4003
1056.7999,79.5207
1057.7642,79.7598
1058.7284,80.1003
1059.6926,80.463
1060.6569,80.7306
1061.6211,80.8022
1062.5853,80.6501
1063.5496,80.3443
1064.5138,80.0269
1065.4780,79.8455
1066.4423,79.8801
1067.4065,80.106
1068.3707,80.411
1069.3350,80.6553
1070.2992,80.7379
1071.2634,80.6342
1072.2277,80.389
1073.1919,80.08
1074.1561,79.7781
1075.1204,79.525
1076.0846,79.3348
1077.0488,79.2069
1078.0131,79.1378
1078.9773,79.1239
1079.9415,79.1578
1080.9058,79.2251
1081.8700,79.3055
1082.8342,79.3783
1083.7985,79.4288
1084.7627,79.4531
1085.7269,79.4598
1086.6912,79.4681
1087.6554,79.5005
1088.6196,79.5737
1089.5839,79.6886
1090.5481,79.8275
1091.5123,79.9598
1092.4766,80.0547
1093.4408,80.0933
1094.4050,80.0737
1095.3693,80.0068
1096.3335,79.9069
1097.2977,79.7831
1098.2620,79.6365
1099.2262,79.4633
1100.1904,79.2593
1101.1547,79.0245
1102.1189,78.7634
1103.0831,78.4846
1104.0474,78.1993
1105.0116,77.9193
1105.9758,77.656
1106.9401,77.4198
1107.9043,77.22
1108.8685,77.0673
1109.8328,76.9751
1110.7970,76.9603
1111.7612,77.0406
1112.7255,77.2306
1113.6897,77.5371
1114.6539,77.9573
1115.6182,78.4806
1116.5824,79.0913
1117.5466,79.7732
1118.5109,80.5116
1119.4751,81.295
1120.4393,82.1151
1121.4036,82.966
1122.3678,83.844
1123.3320,84.7464
1124.2963,85.67
1125.2605,86.6103
1126.2247,87.5614
1127.1890,88.5164
1128.1532,89.4678
1129.1174,90.4085
1130.0817,91.3311
1131.0459,92.2274
1132.0101,93.0885
1132.9744,93.9039
1133.9386,94.6623
1134.9028,95.3519
1135.8671,95.9617
1136.8313,96.4835
1137.7955,96.9139
1138.7598,97.2554
1139.7240,97.516
1140.6882,97.7065
1141.6525,97.8375
1142.6167,97.9176
1143.5809,97.953
1144.5452,97.9503
1145.5094,97.9188
1146.4736,97.871
1147.4379,97.8213
1148.4021,97.7827
1149.3663,97.7648
1150.3306,97.7722
1151.2948,97.8057
1152.2590,97.8641
1153.2233,97.9455
1154.1875,98.0481
1155.1517,98.1707
1156.1160,98.3122
1157.0802,98.4717
1158.0444,98.647
1159.0087,98.834
1159.9729,99.0257
1160.9371,99.2129
1161.9014,99.3858
1162.8656,99.5367
1163.8298,99.6615
1164.7941,99.7594
1165.7583,99.8314
1166.7225,99.8783
1167.6868,99.9005
1168.6510,99.9115
1169.6152,99.8868
1170.5795,99.7463
1171.5437,99.5734
1172.5079,99.3691
1173.4722,99.1338
1174.4364,98.8671
1175.4006,98.5678
1176.3649,98.2347
1177.3291,97.868
1178.2933,97.471
1179.2576,97.0493
1180.2218,96.6102
1181.1860,96.1612
1182.1503,95.7083
1183.1145,95.2567
1184.0787,94.8103
1185.0430,94.3723
1186.0072,93.9451
1186.9714,93.53
1187.9357,93.1273
1188.8999,92.7367
1189.8641,92.3581
1190.8284,91.9909
1191.7926,91.6335
1192.7568,91.2827
1193.7211,90.9341
1194.6853,90.5836
1195.6495,90.2286
1196.6138,89.8678
1197.5780,89.4998
1198.5422,89.1224
1199.5065,88.8119
1200.4707,88.3959
1201.4349,87.9651
1202.3992,87.5257
1203.3634,87.0873
1204.3276,86.6595
1205.2919,86.249
1206.2561,85.8594
1207.2203,85.4927
1208.1846,85.1522
1209.1488,84.8443
1210.1130,84.5779
1211.0773,84.3609
1212.0415,84.1974
1213.0057,84.086
1213.9700,84.0216
1214.9342,83.9986
1215.8984,84.0142
1216.8627,84.0685
1217.8269,84.1634
1218.7911,84.298
1219.7554,84.4681
1220.7196,84.6664
1221.6838,84.8847
1222.6481,85.1162
1223.6123,85.3553
1224.5765,85.5976
1225.5408,85.8395
1226.5050,86.0782
1227.4692,86.3125
1228.4335,86.5419
1229.3977,86.7668
1230.3619,86.9881
1231.3262,87.2089
1232.2904,87.4348
1233.2546,87.671
1234.2189,87.9157
1235.1831,88.1542
1236.1473,88.3589
1237.1116,88.5007
1238.0758,88.5675
1239.0400,88.5771
1240.0043,88.576
1240.9685,88.6187
1241.9327,88.7401
1242.8970,88.9354
1243.8612,89.1627
1244.8254,89.3662
1245.7897,89.5067
1246.7539,89.5795
1247.7181,89.611
1248.6824,89.6394
1249.6466,89.6924
1250.6108,89.7764
1251.5751,89.879
1252.5393,89.9806
1253.5035,90.0647
1254.4678,90.1227
1255.4320,90.1536
1256.3962,90.1615
1257.3605,90.1532
1258.3247,90.1376
1259.2889,90.1239
1260.2532,90.1191
1261.2174,90.1252
1262.1816,90.1394
1263.1459,90.1568
1264.1101,90.174
1265.0743,90.1909
1266.0386,90.2107
1267.0028,90.2392
1267.9670,90.2832
1268.9313,90.35
1269.8955,90.4453
1270.8597,90.5711
1271.8240,90.7246
1272.7882,90.8973
1273.7524,91.0786
1274.7167,91.2595
1275.6809,91.4348
1276.6451,91.6042
1277.6094,91.7708
1278.5736,91.9379
1279.5378,92.1074
1280.5021,92.278
1281.4663,92.4447
1282.4305,92.6005
1283.3948,92.7388
1284.3590,92.8559
1285.3232,92.9527
1286.2875,93.0353
1287.2517,93.1113
1288.2159,93.1866
1289.1802,93.2609
1290.1444,93.3277
1291.1086,93.3775
1292.0729,93.4024
1293.0371,93.4007
1294.0013,93.3773
1294.9656,93.3414
1295.9298,93.3023
1296.8940,93.2645
1297.8583,93.2272
1298.8225,93.1854
1299.7867,93.1338
1300.7510,93.0703
1301.7152,92.9961
1302.6794,92.916
1303.6437,92.8363
1304.6079,92.7612
1305.5721,92.6919
1306.5364,92.6261
1307.5006,92.5588
1308.4648,92.4849
1309.4291,92.4027
1310.3933,92.3153
1311.3575,92.2303
1312.3218,92.1567
1313.2860,92.0998
1314.2502,92.0592
1315.2145,92.0305
1316.1787,92.0102
1317.1429,92.0002
1318.1072,92.0069
1319.0714,92.0363
1320.0356,92.0878
1320.9999,92.1533
1321.9641,92.2221
1322.9283,92.2877
1323.8926,92.3504
1324.8568,92.4164
1325.8210,92.4939
1326.7853,92.5897
1327.7495,92.7081
1328.7137,92.8513
1329.6780,93.0208
1330.6422,93.2152
1331.6064,93.4274
1332.5707,93.6424
1333.5349,93.8392
1334.4991,93.9986
1335.4634,94.1139
1336.4276,94.2024
1337.3918,94.3116
1338.3561,94.5081
1339.3203,94.836
1340.2845,95.2743
1341.2488,95.7465
1342.2130,96.176
1343.1772,96.5247
1344.1415,96.7914
1345.1057,96.9933
1346.0699,97.1523
1347.0342,97.2884
1347.9984,97.4144
1348.9626,97.5333
1349.9269,97.6393
1350.8911,97.7238
1351.8553,97.7827
1352.8196,97.82
1353.7838,97.8464
1354.7480,97.8719
1355.7123,97.8975
1356.6765,97.9131
1357.6407,97.9042
1358.6050,97.8601
1359.5692,97.7819
1360.5334,97.6901
1361.4977,97.6251
1362.4619,97.6207
1363.4261,97.6679
1364.3904,97.7206
1365.3546,97.739
1366.3188,97.7152
1367.2831,97.6631
1368.2473,97.6013
1369.2115,97.5409
1370.1758,97.4834
1371.1400,97.4261
1372.1042,97.3746
1373.0685,97.3509
1374.0327,97.386
1374.9969,97.4927
1375.9612,97.6487
1376.9254,97.8173
1377.8896,97.9791
1378.8539,98.1366
1379.8181,98.2981
1380.7823,98.4625
1381.7466,98.6191
1382.7108,98.7595
1383.6750,98.89
1384.6393,99.0332
1385.6035,99.2178
1386.5677,99.4515
1387.5320,99.6848
1388.4962,99.82
1389.4604,99.7843
1390.4247,99.5809
1391.3889,99.2714
1392.3531,98.9422
1393.3174,98.6913
1394.2816,98.6141
1395.2458,98.7559
1396.2101,99.0626
1397.1743,99.3513
1398.1385,99.5318
1399.1028,99.5546
1400.0670,99.4274
1401.0313,99.1925
1401.9955,98.8957
1402.9597,98.5728
1403.9240,98.2511
1404.8882,97.9509
1405.8524,97.6804
1406.8167,97.4306
1407.7809,97.1838
1408.7451,96.9276
1409.7094,96.6574
1410.6736,96.3723
1411.6378,96.0729
1412.6021,95.7621
1413.5663,95.4471
1414.5305,95.1347
1415.4948,94.8224
1416.4590,94.499
1417.4232,94.1683
1418.3875,93.8628
1419.3517,93.599
1420.3159,93.3453
1421.2802,93.0798
1422.2444,92.8336
1423.2086,92.6584
1424.1729,92.583
1425.1371,92.5993
1426.1013,92.6796
1427.0656,92.8032
1428.0298,92.9696
1428.9940,93.1879
1429.9583,93.4545
1430.9225,93.744
1431.8867,94.0298
1432.8510,94.3069
1433.8152,94.5835
1434.7794,94.8564
1435.7437,95.0969
1436.7079,95.2435
1437.6721,95.2148
1438.6364,94.9712
1439.6006,94.5539
1440.5648,94.0398
1441.5291,93.4829
1442.4933,92.9001
1443.4575,92.2867
1444.4218,91.6345
1445.3860,90.9428
1446.3502,90.2239
1447.3145,89.5073
1448.2787,88.8339
1449.2429,88.2379
1450.2072,87.736
1451.1714,87.3368
1452.1356,87.0478
1453.0999,86.8599
1454.0641,86.7213
1455.0283,86.5466
1455.9926,86.3236
1456.9568,86.2251
1457.9210,86.3408
1458.8853,86.4457
1459.8495,86.3967
1460.8137,86.2786
1461.7780,86.2208
1462.7422,86.3082
1463.7064,86.5894
1464.6707,87.07
1465.6349,87.6679
1466.5991,88.2507
1467.5634,88.7556
1468.5276,89.2162
1469.4918,89.6886
1470.4561,90.2014
1471.4203,90.7745
1472.3845,91.4553
1473.3488,92.2529
1474.3130,93.0328
1475.2772,93.6284
1476.2415,93.9982
1477.2057,94.1921
1478.1699,94.2673
1479.1342,94.2596
1480.0984,94.1886
1481.0626,94.0653
1482.0269,93.8938
1482.9911,93.6726
1483.9553,93.3969
1484.9196,93.0551
1485.8838,92.6222
1486.8480,92.0725
1487.8123,91.439
1488.7765,90.8677
1489.7407,90.5045
1490.7050,90.3125
1491.6692,90.1529
1492.6334,89.9536
1493.5977,89.7069
1494.5619,89.404
1495.5261,89.0262
1496.4904,88.5934
1497.4546,88.1896
1498.4188,87.8773
1499.3831,87.6296
1500.3473,87.4152
1501.3115,87.262
1502.2758,87.2134
1503.2400,87.2535
1504.2042,87.2476
1505.1685,86.9408
1506.1327,86.185
1507.0969,85.375
1508.0612,85.0433
1509.0254,85.0281
1509.9896,85.0172
1510.9539,84.9617
1511.9181,84.9129
1512.8823,84.9144
1513.8466,85.0012
1514.8108,85.2167
1515.7750,85.5995
1516.7393,86.154
1517.7035,86.8563
1518.6677,87.7043
1519.6320,88.7431
1520.5962,89.9983
1521.5604,91.3681
1522.5247,92.6481
1523.4889,93.7137
1524.4531,94.6132
1525.4174,95.4638
1526.3816,96.3076
1527.3458,97.0824
1528.3101,97.7058
1529.2743,98.1575
1530.2385,98.4795
1531.2028,98.734
1532.1670,98.9741
1533.1312,99.2222
1534.0955,99.4607
1535.0597,99.6956
1536.0239,99.904
1536.9882,100.089
1537.9524,100.157
1538.9166,99.9162
1539.8809,99.3363
1540.8451,98.8763
1541.8093,98.9422
1542.7736,99.2853
1543.7378,99.5913
1544.7020,99.7866
1545.6663,99.8819
1546.6305,99.8894
1547.5947,99.828
1548.5590,99.728
1549.5232,99.6171
1550.4874,99.5045
1551.4517,99.3833
1552.4159,99.2525
1553.3801,99.1377
1554.3444,99.0812
1555.3086,99.0977
1556.2728,99.1393
1557.2371,99.159
1558.2013,99.2793
1559.1655,99.5406
1560.1298,99.5292
1561.0940,99.0648
1562.0582,98.3972
1563.0225,97.7846
1563.9867,97.3376
1564.9509,97.053
1565.9152,96.866
1566.8794,96.6927
1567.8436,96.4903
1568.8079,96.2363
1569.7721,95.9595
1570.7363,95.6883
1571.7006,95.4411
1572.6648,95.2213
1573.6290,94.9929
1574.5933,94.6833
1575.5575,94.2597
1576.5217,93.7942
1577.4860,93.3707
1578.4502,92.9838
1579.4144,92.6071
1580.3787,92.2415
1581.3429,91.8893
1582.3071,91.5411
1583.2714,91.1873
1584.2356,90.8279
1585.1998,90.4685
1586.1641,90.1141
1587.1283,89.7687
1588.0925,89.4387
1589.0568,89.1322
1590.0210,88.8546
1590.9852,88.6061
1591.9495,88.3847
1592.9137,88.192
1593.8779,88.0347
1594.8422,87.918
1595.8064,87.837
1596.7706,87.7745
1597.7349,87.7098
1598.6991,87.6298
1599.6633,87.535
1600.6276,87.4379
1601.5918,87.3557
1602.5560,87.2995
1603.5203,87.2668
1604.4845,87.2456
1605.4487,87.226
1606.4130,87.2109
1607.3772,87.2173
1608.3414,87.266
1609.3057,87.363
1610.2699,87.4928
1611.2341,87.6379
1612.1984,87.8004
1613.1626,87.9979
1614.1268,88.2507
1615.0911,88.5849
1616.0553,89.018
1617.0195,89.4879
1617.9838,89.8605
1618.9480,90.085
1619.9122,90.2404
1620.8765,90.4356
1621.8407,90.7305
1622.8049,91.1187
1623.7692,91.5402
1624.7334,91.9231
1625.6976,92.2384
1626.6619,92.5086
1627.6261,92.7636
1628.5903,93.006
1629.5546,93.2238
1630.5188,93.4248
1631.4830,93.6361
1632.4473,93.863
1633.4115,94.056
1634.3757,94.1504
1635.3400,94.1814
1636.3042,94.26
1637.2684,94.3643
1638.2327,94.3964
1639.1969,94.358
1640.1611,94.317
1641.1254,94.3271
1642.0896,94.4002
1643.0538,94.4977
1644.0181,94.5294
1644.9823,94.4014
1645.9465,94.1389
1646.9108,93.9215
1647.8750,93.8915
1648.8392,94.0593
1649.8035,94.3919
1650.7677,94.8115
1651.7319,95.1585
1652.6962,95.3123
1653.6604,95.3138
1654.6246,95.1282
1655.5889,94.7121
1656.5531,94.2278
1657.5173,93.8548
1658.4816,93.6536
1659.4458,93.5794
1660.4100,93.544
1661.3743,93.488
1662.3385,93.4105
1663.3027,93.3308
1664.2670,93.2532
1665.2312,93.178
1666.1954,93.0976
1667.1597,92.9818
1668.1239,92.803
1669.0881,92.5949
1670.0524,92.4489
1671.0166,92.4172
1671.9808,92.479
1672.9451,92.5953
1673.9093,92.727
1674.8735,92.816
1675.8378,92.7935
1676.8020,92.6296
1677.7662,92.3746
1678.7305,92.1382
1679.6947,92.0194
1680.6589,92.0502
1681.6232,92.1836
1682.5874,92.3449
1683.5516,92.5044
1684.5159,92.6219
1685.4801,92.5844
1686.4443,92.3711
1687.4086,92.0989
1688.3728,91.8931
1689.3370,91.8121
1690.3013,91.8518
1691.2655,91.9696
1692.2297,92.1026
1693.1940,92.1765
1694.1582,92.122
1695.1224,91.9144
1696.0867,91.6245
1697.0509,91.4168
1698.0151,91.4367
1698.9794,91.6495
1699.9436,91.8327
1700.9078,91.779
1701.8721,91.4701
1702.8363,91.0442
1703.8005,90.6661
1704.7648,90.4412
1705.7290,90.3892
1706.6932,90.4518
1707.6575,90.5357
1708.6217,90.5766
1709.5859,90.5683
1710.5502,90.5407
1711.5144,90.5199
1712.4786,90.5086
1713.4429,90.4898
1714.4071,90.4604
1715.3713,90.4958
1716.3356,90.7662
1717.2998,91.3273
1718.2640,91.9255
1719.2283,92.2911
1720.1925,92.4225
1721.1567,92.4721
1722.1210,92.572
1723.0852,92.7718
1724.0494,93.047
1725.0137,93.3328
1725.9779,93.5667
1726.9421,93.7226
1727.9064,93.8199
1728.8706,93.9063
1729.8348,94.0307
1730.7991,94.2253
1731.7633,94.5082
1732.7275,94.8884
1733.6918,95.3157
1734.6560,95.6426
1735.6202,95.7624
1736.5845,95.73
1737.5487,95.676
1738.5129,95.6844
1739.4772,95.7581
1740.4414,95.8468
1741.4056,95.8951
1742.3699,95.882
1743.3341,95.8272
1744.2983,95.7689
1745.2626,95.7367
1746.2268,95.7452
1747.1910,95.8126
1748.1553,95.9821
1749.1195,96.3008
1750.0837,96.7396
1751.0480,97.1665
1752.0122,97.4592
1752.9764,97.6008
1753.9407,97.6519
1754.9049,97.6795
1755.8691,97.7212
1756.8334,97.7846
1757.7976,97.8628
1758.7618,97.9506
1759.7261,98.0508
1760.6903,98.1701
1761.6545,98.3054
1762.6188,98.4373
1763.5830,98.5435
1764.5472,98.6181
1765.5115,98.6731
1766.4757,98.7212
1767.4399,98.7613
1768.4042,98.7802
1769.3684,98.7691
1770.3326,98.7479
1771.2969,98.7699
1772.2611,98.8736
1773.2253,99.0188
1774.1896,99.1218
1775.1538,99.1501
1776.1180,99.1367
1777.0823,99.1289
1778.0465,99.15
1779.0107,99.1986
1779.9750,99.2665
1780.9392,99.3503
1781.9034,99.4503
1782.8677,99.5615
1783.8319,99.667
1784.7961,99.7426
1785.7604,99.772
1786.7246,99.7617
1787.6888,99.7365
1788.6531,99.7164
1789.6173,99.6991
1790.5815,99.6721
1791.5458,99.6425
1792.5100,99.6312
1793.4742,99.6279
1794.4385,99.6049
1795.4027,99.5672
1796.3669,99.547
1797.3312,99.5644
1798.2954,99.6141
1799.2596,99.6793
1800.2239,99.7498
1801.1881,99.8213
1802.1523,99.8872
1803.1166,99.9377
1804.0808,99.9667
1805.0450,99.9729
1806.0093,99.9561
1806.9735,99.9178
1807.9377,99.8651
1808.9020,99.8165
1809.8662,99.7978
1810.8304,99.8257
1811.7947,99.8926
1812.7589,99.9735
1813.7231,100.046
1814.6874,100.098
1815.6516,100.128
1816.6158,100.137
1817.5801,100.13
1818.5443,100.111
1819.5085,100.088
1820.4728,100.067
1821.4370,100.053
1822.4012,100.042
1823.3655,100.029
1824.3297,100.004
1825.2939,99.9626
1826.2582,99.9028
1827.2224,99.8369
1828.1866,99.7907
1829.1509,99.7934
1830.1151,99.85
1831.0793,99.9245
1832.0436,99.9693
1833.0078,99.968
1833.9720,99.9378
1834.9363,99.9022
1835.9005,99.874
1836.8647,99.8548
1837.8290,99.8427
1838.7932,99.8394
1839.7574,99.8508
1840.7217,99.882
1841.6859,99.9173
1842.6501,99.9224
1843.6144,99.8949
1844.5786,99.8581
1845.5428,99.8295
1846.5071,99.8118
1847.4713,99.812
1848.4355,99.8415
1849.3998,99.9001
1850.3640,99.9706
1851.3282,100.03
1852.2925,100.064
1853.2567,100.072
1854.2209,100.063
1855.1852,100.046
1856.1494,100.026
1857.1136,100.006
1858.0779,99.9894
1859.0421,99.9823
1860.0063,99.9845
1860.9706,99.9878
1861.9348,99.9775
1862.8990,99.9405
1863.8633,99.8724
1864.8275,99.7757
1865.7917,99.6618
1866.7560,99.5601
1867.7202,99.5237
1868.6844,99.592
1869.6487,99.7378
1870.6129,99.8852
1871.5771,99.9836
1872.5414,100.033
1873.5056,100.056
1874.4698,100.069
1875.4341,100.077
1876.3983,100.08
1877.3625,100.079
1878.3268,100.074
1879.2910,100.067
1880.2552,100.06
1881.2195,100.05
1882.1837,100.035
1883.1479,100.015
1884.1122,99.9922
1885.0764,99.9695
1886.0406,99.9497
1887.0049,99.9347
1887.9691,99.9261
1888.9333,99.9251
1889.8976,99.928
1890.8618,99.9255
1891.8260,99.9109
1892.7903,99.8869
1893.7545,99.8648
1894.7188,99.8577
1895.6830,99.8726
1896.6472,99.9057
1897.6115,99.9439
1898.5757,99.9731
1899.5399,99.9861
1900.5042,99.984
1901.4684,99.9723
1902.4326,99.9555
1903.3969,99.9334
1904.3611,99.9017
1905.3253,99.8567
1906.2896,99.8015
1907.2538,99.748
1908.2180,99.7143
1909.1823,99.7143
1910.1465,99.7465
1911.1107,99.7936
1912.0750,99.8358
1913.0392,99.8638
1914.0034,99.8792
1914.9677,99.8865
1915.9319,99.8866
1916.8961,99.8761
1917.8604,99.8479
1918.8246,99.796
1919.7888,99.7244
1920.7531,99.6516
1921.7173,99.6042
1922.6815,99.6022
1923.6458,99.6464
1924.6100,99.7168
1925.5742,99.7855
1926.5385,99.8333
1927.5027,99.8555
1928.4669,99.8569
1929.4312,99.8455
1930.3954,99.8286
1931.3596,99.8119
1932.3239,99.8001
1933.2881,99.7969
1934.2523,99.8034
1935.2166,99.8156
1936.1808,99.8256
1937.1450,99.8246
1938.1093,99.8062
1939.0735,99.769
1940.0377,99.7164
1941.0020,99.6592
1941.9662,99.6144
1942.9304,99.5966
1943.8947,99.608
1944.8589,99.6399
1945.8231,99.6823
1946.7874,99.729
1947.7516,99.7757
1948.7158,99.8172
1949.6801,99.8473
1950.6443,99.8624
1951.6085,99.8631
1952.5728,99.8553
1953.5370,99.8466
1954.5012,99.8433
1955.4655,99.8471
1956.4297,99.8558
1957.3939,99.8662
1958.3582,99.8762
1959.3224,99.8847
1960.2866,99.8904
1961.2509,99.8895
1962.2151,99.8767
1963.1793,99.8493
1964.1436,99.8104
1965.1078,99.7715
1966.0720,99.7491
1967.0363,99.7565
1968.0005,99.7942
1968.9647,99.8487
1969.9290,99.9015
1970.8932,99.9398
1971.8574,99.9601
1972.8217,99.9662
1973.7859,99.9645
1974.7501,99.9609
1975.7144,99.9579
1976.6786,99.9553
1977.6428,99.9523
1978.6071,99.9492
1979.5713,99.9472
1980.5355,99.9469
1981.4998,99.9478
1982.4640,99.9474
1983.4282,99.9425
1984.3925,99.9307
1985.3567,99.9105
1986.3209,99.8823
1987.2852,99.8477
1988.2494,99.8101
1989.2136,99.7752
1990.1779,99.7515
1991.1421,99.7483
1992.1063,99.7696
1993.0706,99.81
1994.0348,99.8567
1994.9990,99.8963
1995.9633,99.9217
1996.9275,99.9324
1997.8917,99.9335
1998.8560,99.9315
1999.8202,99.9318
2000.7844,99.9356
2001.7487,99.9404
2002.7129,99.9423
2003.6771,99.9391
2004.6414,99.9307
2005.6056,99.9198
2006.5698,99.9095
2007.5341,99.9028
2008.4983,99.9012
2009.4625,99.9043
2010.4268,99.9092
2011.3910,99.9105
2012.3552,99.9022
2013.3195,99.8804
2014.2837,99.8465
2015.2479,99.8082
2016.2122,99.7779
2017.1764,99.7666
2018.1406,99.7774
2019.1049,99.804
2020.0691,99.8348
2021.0333,99.86
2021.9976,99.8747
2022.9618,99.8799
2023.9260,99.8798
2024.8903,99.8789
2025.8545,99.8794
2026.8187,99.8817
2027.7830,99.8844
2028.7472,99.8861
2029.7114,99.8858
2030.6757,99.8829
2031.6399,99.878
2032.6041,99.8724
2033.5684,99.8678
2034.5326,99.8648
2035.4968,99.8617
2036.4611,99.8554
2037.4253,99.8425
2038.3895,99.8227
2039.3538,99.7998
2040.3180,99.7808
2041.2822,99.7723
2042.2465,99.7768
2043.2107,99.7908
2044.1749,99.8076
2045.1392,99.8206
2046.1034,99.8267
2047.0676,99.8264
2048.0320,99.8223
2048.9961,99.817
2049.9604,99.8124
2050.9246,99.8088
2051.8889,99.806
2052.8530,99.8037
2053.8174,99.8012
2054.7815,99.7984
2055.7458,99.7953
2056.7100,99.7924
2057.6743,99.7898
2058.6384,99.7864
2059.6028,99.7798
2060.5669,99.7676
2061.5313,99.7495
2062.4954,99.7286
2063.4597,99.7112
2064.4238,99.7041
2065.3882,99.7105
2066.3523,99.7281
2067.3167,99.7501
2068.2808,99.769
2069.2451,99.7805
2070.2092,99.7839
2071.1736,99.7816
2072.1377,99.777
2073.1021,99.7721
2074.0662,99.7677
2075.0305,99.7636
2075.9946,99.7594
2076.9590,99.7554
2077.9231,99.7519
2078.8875,99.7494
2079.8516,99.748
2080.8159,99.7475
2081.7800,99.7472
2082.7444,99.7459
2083.7085,99.7424
2084.6729,99.7361
2085.6370,99.727
2086.6013,99.7164
2087.5654,99.7059
2088.5298,99.6974
2089.4939,99.6919
2090.4583,99.6895
2091.4224,99.6894
2092.3867,99.6906
2093.3508,99.6924
2094.3152,99.6945
2095.2793,99.6966
2096.2437,99.6982
2097.2078,99.6986
2098.1721,99.697
2099.1362,99.6929
2100.1006,99.6857
2101.0647,99.6788
2102.0291,99.672
2102.9932,99.666
2103.9575,99.6611
2104.9216,99.6571
2105.8860,99.6535
2106.8501,99.6498
2107.8145,99.6454
2108.7786,99.6397
2109.7429,99.6323
2110.7070,99.6233
2111.6714,99.6138
2112.6355,99.606
2113.5999,99.602
2114.5640,99.6032
2115.5283,99.6093
2116.4924,99.6176
2117.4568,99.6245
2118.4209,99.6272
2119.3853,99.6243
2120.3494,99.617
2121.3137,99.608
2122.2778,99.6002
2123.2422,99.5952
2124.2063,99.593
2125.1707,99.5925
2126.1348,99.5927
2127.0991,99.5936
2128.0632,99.5959
2129.0276,99.6003
2129.9917,99.606
2130.9561,99.6108
2131.9202,99.6119
2132.8845,99.6074
2133.8486,99.5983
2134.8130,99.5882
2135.7771,99.5814
2136.7415,99.5811
2137.7056,99.587
2138.6699,99.5962
2139.6340,99.6044
2140.5984,99.6085
2141.5625,99.6083
2142.5269,99.6062
2143.4910,99.6056
2144.4553,99.6091
2145.4194,99.6166
2146.3838,99.6259
2147.3479,99.6336
2148.3123,99.637
2149.2764,99.6353
2150.2407,99.63
2151.2048,99.6238
2152.1692,99.6194
2153.1333,99.6183
2154.0977,99.6207
2155.0618,99.6253
2156.0261,99.6304
2156.9902,99.6345
2157.9546,99.6366
2158.9187,99.6364
2159.8831,99.6344
2160.8472,99.6314
2161.8115,99.6281
2162.7756,99.6254
2163.7400,99.6237
2164.7041,99.6231
2165.6685,99.6233
2166.6326,99.6237
2167.5969,99.6234
2168.5610,99.6221
2169.5254,99.6199
2170.4895,99.6177
2171.4539,99.6167
2172.4180,99.6174
2173.3823,99.6197
2174.3464,99.6226
2175.3108,99.6252
2176.2749,99.6271
2177.2393,99.6284
2178.2034,99.6292
2179.1677,99.6293
2180.1318,99.6279
2181.0962,99.624
2182.0603,99.6181
2183.0247,99.6116
2183.9888,99.6069
2184.9531,99.606
2185.9172,99.609
2186.8816,99.614
2187.8457,99.6185
2188.8101,99.6204
2189.7742,99.6195
2190.7385,99.6169
2191.7026,99.6147
2192.6670,99.6144
2193.6311,99.6164
2194.5955,99.6201
2195.5596,99.624
2196.5239,99.6268
2197.4880,99.6277
2198.4524,99.6262
2199.4165,99.6225
2200.3809,99.6175
2201.3450,99.6122
2202.3093,99.6078
2203.2734,99.6051
2204.2378,99.6041
2205.2019,99.6047
2206.1663,99.6063
2207.1304,99.6083
2208.0947,99.6104
2209.0588,99.6118
2210.0232,99.6117
2210.9873,99.609
2211.9517,99.6035
2212.9158,99.5955
2213.8801,99.5867
2214.8442,99.5789
2215.8086,99.5736
2216.7727,99.5708
2217.7371,99.569
2218.7012,99.5664
2219.6655,99.5618
2220.6296,99.5555
2221.5940,99.549
2222.5581,99.5446
2223.5225,99.5431
2224.4866,99.5435
2225.4509,99.5434
2226.4150,99.5398
2227.3794,99.5314
2228.3435,99.5186
2229.3079,99.5034
2230.2720,99.4887
2231.2363,99.4763
2232.2004,99.4667
2233.1648,99.4592
2234.1289,99.4528
2235.0933,99.4464
2236.0574,99.44
2237.0217,99.4337
2237.9858,99.4274
2238.9502,99.4209
2239.9143,99.4136
2240.8787,99.405
2241.8428,99.3947
2242.8071,99.3827
2243.7712,99.3695
2244.7356,99.3559
2245.6997,99.3428
2246.6641,99.331
2247.6282,99.3204
2248.5925,99.31
2249.5566,99.2985
2250.5210,99.2847
2251.4851,99.2683
2252.4495,99.2501
2253.4136,99.2316
2254.3779,99.2141
2255.3420,99.1981
2256.3064,99.1834
2257.2705,99.1693
2258.2349,99.155
2259.1990,99.1402
2260.1633,99.1252
2261.1274,99.1103
2262.0918,99.0961
2263.0559,99.0835
2264.0203,99.0734
2264.9844,99.0662
2265.9487,99.0619
2266.9128,99.059
2267.8772,99.0559
2268.8413,99.0508
2269.8057,99.0435
2270.7698,99.0349
2271.7341,99.027
2272.6982,99.0216
2273.6626,99.0196
2274.6267,99.0209
2275.5911,99.0252
2276.5552,99.0324
2277.5195,99.0429
2278.4836,99.0568
2279.4480,99.0733
2280.4121,99.0899
2281.3765,99.1023
2282.3406,99.106
2283.3049,99.0966
2284.2690,99.0721
2285.2334,99.0334
2286.1975,98.9847
2287.1619,98.9314
2288.1260,98.8785
2289.0903,98.8282
2290.0544,98.7796
2291.0188,98.7308
2291.9829,98.6813
2292.9473,98.6333
2293.9114,98.5912
2294.8757,98.5591
2295.8398,98.5392
2296.8042,98.5317
2297.7683,98.5368
2298.7327,98.556
2299.6968,98.5918
2300.6611,98.6452
2301.6252,98.7119
2302.5896,98.7818
2303.5537,98.8412
2304.5181,98.8783
2305.4822,98.8898
2306.4465,98.8849
2307.4106,98.8838
2308.3750,98.9107
2309.3391,98.9823
2310.3035,99.0995
2311.2676,99.2455
2312.2319,99.3942
2313.1960,99.5229
2314.1604,99.6243
2315.1245,99.7087
2316.0889,99.7972
2317.0530,99.9087
2318.0173,100.048
2318.9814,100.198
2319.9458,100.319
2320.9099,100.361
2321.8743,100.282
2322.8384,100.075
2323.8027,99.7785
2324.7668,99.4697
2325.7312,99.2329
2326.6953,99.1279
2327.6597,99.1661
2328.6238,99.3046
2329.5881,99.4611
2330.5522,99.549
2331.5166,99.5171
2332.4807,99.3727
2333.4451,99.1698
2334.4092,98.975
2335.3735,98.8322
2336.3376,98.7471
2337.3020,98.6916
2338.2661,98.6248
2339.2305,98.5188
2340.1946,98.3842
2341.1589,98.2869
2342.1230,98.3362
2343.0874,98.5972
2344.0515,98.9529
2345.0159,99.1328
2345.9800,98.9786
2346.9443,98.5965
2347.9084,98.2322
2348.8728,98.0859
2349.8369,98.2188
2350.8013,98.543
2351.7654,98.8682
2352.7297,99.0075
2353.6938,98.9034
2354.6582,98.6504
2355.6223,98.3655
2356.5867,98.0795
2357.5508,97.7825
2358.5151,97.5092
2359.4792,97.333
2360.4436,97.2939
2361.4077,97.3727
2362.3721,97.535
2363.3362,97.7693
2364.3005,98.0753
2365.2646,98.4364
2366.2290,98.8225
2367.1931,99.2026
2368.1575,99.5587
2369.1216,99.8859
2370.0859,100.177
2371.0500,100.418
2372.0144,100.596
2372.9785,100.696
2373.9429,100.712
2374.9070,100.641
2375.8713,100.489
2376.8354,100.27
2377.7998,100.007
2378.7639,99.7299
2379.7283,99.4675
2380.6924,99.2445
2381.6567,99.0768
2382.6208,98.9702
2383.5852,98.9204
2384.5493,98.9158
2385.5137,98.9404
2386.4778,98.9782
2387.4421,99.0162
2388.4063,99.0464
2389.3706,99.0657
2390.3347,99.0756
2391.2991,99.0795
2392.2632,99.0813
2393.2275,99.0841
2394.1917,99.0888
2395.1560,99.095
2396.1201,99.1014
2397.0845,99.107
2398.0486,99.1107
2399.0129,99.1132
2399.9771,99.1153
2400.9414,99.1175
2401.9055,99.1199
2402.8699,99.1218
2403.8340,99.1231
2404.7983,99.124
2405.7625,99.125
2406.7268,99.1268
2407.6909,99.1294
2408.6553,99.1318
2409.6194,99.1332
2410.5837,99.1331
2411.5479,99.1318
2412.5122,99.1307
2413.4763,99.1313
2414.4407,99.1341
2415.4048,99.139
2416.3691,99.1448
2417.3333,99.1505
2418.2976,99.1551
2419.2617,99.158
2420.2261,99.1591
2421.1902,99.159
2422.1545,99.1583
2423.1187,99.1579
2424.0830,99.159
2425.0471,99.1622
2426.0115,99.1679
2426.9756,99.1756
2427.9399,99.1849
2428.9041,99.195
2429.8684,99.2053
2430.8325,99.2151
2431.7969,99.2236
2432.7610,99.2295
2433.7253,99.2321
2434.6895,99.2313
2435.6538,99.2281
2436.6179,99.2244
2437.5823,99.2227
2438.5464,99.2251
2439.5107,99.2322
2440.4749,99.2434
2441.4392,99.2563
2442.4033,99.2681
2443.3677,99.2766
2444.3318,99.2808
2445.2961,99.2814
2446.2603,99.2804
2447.2246,99.2796
2448.1887,99.2804
2449.1531,99.2829
2450.1172,99.2863
2451.0815,99.29
2452.0457,99.2939
2453.0100,99.2987
2453.9741,99.3048
2454.9385,99.312
2455.9026,99.3187
2456.8669,99.3228
2457.8311,99.3231
2458.7954,99.3197
2459.7595,99.3143
2460.7239,99.3096
2461.6880,99.3076
2462.6523,99.3093
2463.6165,99.3141
2464.5808,99.3207
2465.5449,99.3275
2466.5093,99.3333
2467.4734,99.3372
2468.4377,99.3388
2469.4019,99.3385
2470.3662,99.3375
2471.3303,99.3376
2472.2947,99.3406
2473.2588,99.3471
2474.2231,99.3562
2475.1873,99.3655
2476.1516,99.3725
2477.1157,99.3761
2478.0801,99.3774
2479.0442,99.3787
2480.0085,99.3823
2480.9727,99.3888
2481.9370,99.3967
2482.9011,99.4032
2483.8655,99.4061
2484.8296,99.4049
2485.7939,99.4013
2486.7581,99.3977
2487.7224,99.3962
2488.6865,99.3973
2489.6509,99.4002
2490.6150,99.4033
2491.5793,99.4058
2492.5435,99.408
2493.5078,99.4111
2494.4719,99.4168
2495.4363,99.4259
2496.4004,99.4379
2497.3647,99.4506
2498.3289,99.4615
2499.2932,99.4684
2500.2573,99.4707
2501.2217,99.4696
2502.1858,99.4674
2503.1501,99.4668
2504.1143,99.469
2505.0786,99.4738
2506.0427,99.4797
2507.0071,99.4853
2507.9712,99.4894
2508.9355,99.4917
2509.8997,99.4924
2510.8640,99.4921
2511.8281,99.4913
2512.7925,99.4911
2513.7566,99.493
2514.7209,99.4986
2515.6851,99.5086
2516.6494,99.522
2517.6135,99.5363
2518.5779,99.5485
2519.5420,99.5564
2520.5063,99.56
2521.4705,99.5612
2522.4348,99.5624
2523.3989,99.5656
2524.3633,99.5711
2525.3274,99.578
2526.2917,99.585
2527.2559,99.5909
2528.2202,99.5956
2529.1843,99.5988
2530.1487,99.6004
2531.1128,99.5997
2532.0771,99.5965
2533.0413,99.5917
2534.0056,99.5871
2534.9697,99.5848
2535.9341,99.5866
2536.8982,99.5924
2537.8625,99.6004
2538.8267,99.6084
2539.7910,99.6143
2540.7551,99.6173
2541.7195,99.6184
2542.6836,99.6193
2543.6479,99.6215
2544.6121,99.6258
2545.5764,99.6313
2546.5405,99.6367
2547.5049,99.6404
2548.4690,99.6418
2549.4333,99.6416
2550.3975,99.6413
2551.3618,99.6428
2552.3259,99.6471
2553.2903,99.6537
2554.2544,99.6611
2555.2188,99.6674
2556.1829,99.6718
2557.1472,99.6745
2558.1113,99.677
2559.0757,99.6804
2560.0398,99.685
2561.0042,99.6893
2561.9683,99.6917
2562.9326,99.6911
2563.8967,99.6883
2564.8611,99.6857
2565.8252,99.6863
2566.7896,99.6916
2567.7537,99.7009
2568.7180,99.7111
2569.6821,99.7188
2570.6465,99.7214
2571.6106,99.7192
2572.5750,99.7146
2573.5391,99.7109
2574.5034,99.7105
2575.4675,99.7139
2576.4319,99.7196
2577.3960,99.7257
2578.3604,99.7312
2579.3245,99.7358
2580.2888,99.7406
2581.2529,99.746
2582.2173,99.7515
2583.1814,99.7558
2584.1458,99.7576
2585.1099,99.7564
2586.0742,99.7532
2587.0383,99.75
2588.0027,99.749
2588.9668,99.751
2589.9312,99.7555
2590.8953,99.7606
2591.8596,99.7641
2592.8237,99.7645
2593.7881,99.7617
2594.7522,99.7568
2595.7166,99.7521
2596.6807,99.7495
2597.6450,99.7502
2598.6091,99.754
2599.5735,99.7597
2600.5376,99.7657
2601.5020,99.7707
2602.4661,99.7741
2603.4304,99.776
2604.3945,99.7775
2605.3589,99.7802
2606.3230,99.7855
2607.2874,99.7942
2608.2515,99.8059
2609.2158,99.8188
2610.1799,99.8309
2611.1443,99.8404
2612.1084,99.8465
2613.0728,99.8494
2614.0369,99.8498
2615.0012,99.8488
2615.9653,99.8474
2616.9297,99.8464
2617.8938,99.8469
2618.8582,99.8493
2619.8223,99.8534
2620.7866,99.8581
2621.7507,99.8616
2622.7151,99.863
2623.6792,99.8622
2624.6436,99.8607
2625.6077,99.8605
2626.5720,99.8628
2627.5361,99.8675
2628.5005,99.8731
2629.4646,99.8777
2630.4290,99.88
2631.3931,99.8797
2632.3574,99.8776
2633.3215,99.875
2634.2859,99.873
2635.2500,99.8721
2636.2144,99.8724
2637.1785,99.8737
2638.1428,99.8761
2639.1069,99.8792
2640.0713,99.8827
2641.0354,99.8856
2641.9998,99.8869
2642.9639,99.886
2643.9282,99.8831
2644.8923,99.8799
2645.8567,99.8786
2646.8208,99.8806
2647.7852,99.8859
2648.7493,99.8925
2649.7136,99.898
2650.6777,99.9005
2651.6421,99.8999
2652.6062,99.8981
2653.5706,99.8975
2654.5347,99.9
2655.4990,99.9059
2656.4631,99.9137
2657.4275,99.9208
2658.3916,99.9249
2659.3560,99.9243
2660.3201,99.9194
2661.2844,99.9118
2662.2485,99.9044
2663.2129,99.9003
2664.1770,99.9015
2665.1414,99.9083
2666.1055,99.9192
2667.0698,99.9315
2668.0339,99.9425
2668.9983,99.9508
2669.9624,99.9568
2670.9268,99.9619
2671.8909,99.9674
2672.8552,99.974
2673.8193,99.981
2674.7837,99.9869
2675.7478,99.9907
2676.7122,99.9917
2677.6763,99.9899
2678.6406,99.9861
2679.6047,99.9812
2680.5691,99.9762
2681.5332,99.9721
2682.4976,99.9695
2683.4617,99.9687
2684.4260,99.9692
2685.3901,99.9703
2686.3545,99.9708
2687.3186,99.9702
2688.2830,99.9685
2689.2471,99.9661
2690.2114,99.9637
2691.1755,99.9618
2692.1399,99.9602
2693.1040,99.9588
2694.0684,99.9571
2695.0325,99.9553
2695.9968,99.9538
2696.9609,99.9531
2697.9253,99.9535
2698.8894,99.9548
2699.8538,99.9559
2700.8179,99.9557
2701.7822,99.9527
2702.7463,99.9468
2703.7107,99.9383
2704.6748,99.9287
2705.6392,99.9196
2706.6033,99.9122
2707.5676,99.9071
2708.5317,99.904
2709.4961,99.9025
2710.4602,99.9016
2711.4246,99.9008
2712.3887,99.899
2713.3530,99.8955
2714.3171,99.8896
2715.2815,99.8816
2716.2456,99.8725
2717.2100,99.864
2718.1741,99.8577
2719.1384,99.8549
2720.1025,99.8554
2721.0669,99.858
2722.0310,99.8608
2722.9954,99.8618
2723.9595,99.8593
2724.9238,99.853
2725.8879,99.8435
2726.8523,99.8327
2727.8164,99.8227
2728.7808,99.8156
2729.7449,99.8126
2730.7092,99.8134
2731.6733,99.8162
2732.6377,99.8184
2733.6018,99.8175
2734.5662,99.8116
2735.5303,99.8008
2736.4946,99.7865
2737.4587,99.7709
2738.4231,99.7568
2739.3872,99.7459
2740.3516,99.7392
2741.3157,99.7365
2742.2800,99.7374
2743.2441,99.7414
2744.2085,99.7477
2745.1726,99.7556
2746.1370,99.7633
2747.1011,99.769
2748.0654,99.7707
2749.0295,99.7681
2749.9939,99.7628
2750.9580,99.7575
2751.9224,99.755
2752.8865,99.7561
2753.8508,99.7594
2754.8149,99.7624
2755.7793,99.7629
2756.7434,99.7603
2757.7078,99.7558
2758.6719,99.7508
2759.6362,99.7464
2760.6003,99.7423
2761.5647,99.7382
2762.5288,99.734
2763.4932,99.7305
2764.4573,99.7286
2765.4216,99.7286
2766.3857,99.7302
2767.3501,99.733
2768.3142,99.7369
2769.2786,99.7417
2770.2427,99.7468
2771.2070,99.7502
2772.1711,99.7491
2773.1355,99.7413
2774.0996,99.7272
2775.0640,99.7097
2776.0281,99.693
2776.9924,99.6804
2777.9565,99.6719
2778.9209,99.665
2779.8850,99.6564
2780.8494,99.6442
2781.8135,99.6292
2782.7778,99.614
2783.7419,99.6013
2784.7063,99.5923
2785.6704,99.5863
2786.6348,99.5813
2787.5989,99.5754
2788.5632,99.5676
2789.5273,99.5575
2790.4917,99.5451
2791.4558,99.5302
2792.4202,99.5128
2793.3843,99.493
2794.3486,99.4709
2795.3127,99.4466
2796.2771,99.4226
2797.2412,99.4001
2798.2056,99.3795
2799.1697,99.3605
2800.1340,99.342
2801.0981,99.3225
2802.0625,99.301
2803.0266,99.2773
2803.9910,99.2522
2804.9551,99.2268
2805.9194,99.202
2806.8835,99.178
2807.8479,99.1541
2808.8120,99.1286
2809.7764,99.0997
2810.7405,99.0656
2811.7048,99.025
2812.6689,98.9779
2813.6333,98.9253
2814.5974,98.8693
2815.5618,98.8116
2816.5259,98.7531
2817.4902,98.6924
2818.4543,98.6269
2819.4187,98.5534
2820.3828,98.4699
2821.3472,98.3762
2822.3113,98.274
2823.2756,98.1656
2824.2397,98.0526
2825.2041,97.9359
2826.1682,97.8151
2827.1326,97.6894
2828.0967,97.5576
2829.0610,97.4189
2830.0251,97.2729
2830.9895,97.1202
2831.9536,96.963
2832.9180,96.8052
2833.8821,96.6515
2834.8464,96.5068
2835.8105,96.3746
2836.7749,96.2563
2837.7390,96.1515
2838.7034,96.0594
2839.6675,95.9804
2840.6318,95.9166
2841.5959,95.8718
2842.5603,95.8485
2843.5244,95.846
2844.4888,95.8578
2845.4529,95.8734
2846.4172,95.8813
2847.3813,95.8734
2848.3457,95.8476
2849.3098,95.8066
2850.2742,95.7555
2851.2383,95.6976
2852.2026,95.633
2853.1667,95.5594
2854.1311,95.4745
2855.0952,95.3773
2856.0596,95.2683
2857.0237,95.148
2857.9880,95.0161
2858.9521,94.8714
2859.9165,94.7133
2860.8806,94.5434
2861.8450,94.3653
2862.8091,94.1848
2863.7734,94.0078
2864.7375,93.8396
2865.7019,93.6836
2866.6660,93.541
2867.6304,93.4116
2868.5945,93.2937
2869.5588,93.1845
2870.5229,93.0808
2871.4873,92.9784
2872.4514,92.8733
2873.4158,92.7622
2874.3799,92.6431
2875.3442,92.5154
2876.3083,92.3789
2877.2727,92.2328
2878.2368,92.0758
2879.2012,91.9073
2880.1653,91.7305
2881.1296,91.5542
2882.0938,91.3915
2883.0581,91.2562
2884.0222,91.1565
2884.9866,91.0918
2885.9507,91.052
2886.9150,91.0202
2887.8792,90.9791
2888.8435,90.9172
2889.8076,90.834
2890.7720,90.7405
2891.7361,90.6534
2892.7004,90.584
2893.6646,90.5273
2894.6289,90.4585
2895.5930,90.3433
2896.5574,90.1581
2897.5215,89.909
2898.4858,89.6375
2899.4500,89.406
2900.4143,89.2703
2901.3784,89.2542
2902.3428,89.3401
2903.3069,89.4814
2904.2712,89.6263
2905.2354,89.7389
2906.1997,89.808
2907.1638,89.8423
2908.1282,89.8599
2909.0923,89.8792
2910.0566,89.9146
2911.0208,89.9744
2911.9851,90.0597
2912.9492,90.1622
2913.9136,90.266
2914.8777,90.3517
2915.8420,90.4041
2916.8062,90.4179
2917.7705,90.3979
2918.7346,90.3551
2919.6990,90.3015
2920.6631,90.2463
2921.6274,90.1948
2922.5916,90.1493
2923.5559,90.1094
2924.5200,90.0721
2925.4844,90.0325
2926.4485,89.985
2927.4128,89.926
2928.3770,89.8556
2929.3413,89.7772
2930.3054,89.6958
2931.2698,89.6161
2932.2339,89.5414
2933.1982,89.4743
2934.1624,89.4177
2935.1267,89.3745
2936.0908,89.3462
2937.0552,89.3318
2938.0193,89.327
2938.9836,89.3271
2939.9478,89.33
2940.9121,89.3386
2941.8762,89.3596
2942.8406,89.3997
2943.8047,89.461
2944.7690,89.5372
2945.7332,89.6153
2946.6975,89.6803
2947.6616,89.7205
2948.6260,89.7316
2949.5901,89.7162
2950.5544,89.6808
2951.5186,89.6321
2952.4829,89.5744
2953.4470,89.5098
2954.4114,89.4391
2955.3755,89.3632
2956.3398,89.2839
2957.3040,89.2035
2958.2683,89.1234
2959.2324,89.0424
2960.1968,88.9558
2961.1609,88.8567
2962.1252,88.738
2963.0894,88.5962
2964.0537,88.4332
2965.0178,88.2563
2965.9822,88.0758
2966.9463,87.9023
2967.9106,87.7461
2968.8748,87.6163
2969.8391,87.522
2970.8032,87.4702
2971.7676,87.4634
2972.7317,87.4976
2973.6960,87.5627
2974.6602,87.6459
2975.6245,87.7369
2976.5886,87.8301
2977.5530,87.9249
2978.5171,88.0225
2979.4814,88.1216
2980.4456,88.2155
2981.4099,88.2909
2982.3740,88.3304
2983.3384,88.3191
2984.3025,88.2561
2985.2668,88.1641
2986.2310,88.091
2987.1953,88.0981
2988.1594,88.2352
2989.1238,88.5155
2990.0879,88.9046
2991.0522,89.333
2992.0164,89.7259
2992.9807,90.0349
2993.9448,90.2549
2994.9092,90.4172
2995.8733,90.5666
2996.8376,90.7368
2997.8018,90.938
2998.7661,91.1613
2999.7302,91.3917
3000.6946,91.6206
3001.6587,91.8495
3002.6230,92.0864
3003.5872,92.3387
3004.5515,92.6081
3005.5156,92.8894
3006.4800,93.1734
3007.4441,93.4505
3008.4084,93.7153
3009.3726,93.9681
3010.3369,94.2148
3011.3010,94.4637
3012.2654,94.7214
3013.2295,94.9881
3014.1938,95.2579
3015.1580,95.5208
3016.1223,95.7683
3017.0864,95.9965
3018.0508,96.2073
3019.0149,96.4057
3019.9792,96.5969
3020.9434,96.7838
3021.9077,96.9667
3022.8718,97.1445
3023.8362,97.3156
3024.8003,97.4783
3025.7646,97.6311
3026.7288,97.7727
3027.6931,97.9031
3028.6572,98.0248
3029.6216,98.1419
3030.5857,98.2591
3031.5500,98.3791
3032.5142,98.501
3033.4785,98.6218
3034.4426,98.7379
3035.4070,98.8475
3036.3711,98.9507
3037.3354,99.0484
3038.2996,99.1403
3039.2639,99.2239
3040.2280,99.2962
3041.1924,99.3545
3042.1565,99.3983
3043.1208,99.4297
3044.0850,99.4527
3045.0493,99.4725
3046.0134,99.4938
3046.9778,99.5139
3047.9419,99.5367
3048.9063,99.5598
3049.8704,99.5772
3050.8347,99.5842
3051.7988,99.5796
3052.7632,99.5666
3053.7273,99.5519
3054.6917,99.5425
3055.6558,99.5425
3056.6201,99.5516
3057.5842,99.5652
3058.5486,99.5766
3059.5127,99.5789
3060.4771,99.5676
3061.4412,99.543
3062.4055,99.5098
3063.3696,99.476
3064.3340,99.4502
3065.2981,99.4378
3066.2625,99.439
3067.2266,99.4494
3068.1909,99.4631
3069.1550,99.4756
3070.1194,99.4851
3071.0835,99.4919
3072.0479,99.4958
3073.0120,99.4949
3073.9763,99.4863
3074.9404,99.4679
3075.9048,99.4406
3076.8689,99.4093
3077.8333,99.3808
3078.7974,99.3618
3079.7617,99.3552
3080.7258,99.3594
3081.6902,99.3693
3082.6543,99.3788
3083.6187,99.3842
3084.5828,99.3848
3085.5471,99.3829
3086.5112,99.3814
3087.4756,99.3814
3088.4397,99.3807
3089.4041,99.3751
3090.3682,99.3603
3091.3325,99.3348
3092.2966,99.3007
3093.2610,99.2632
3094.2251,99.2276
3095.1895,99.1979
3096.1536,99.1748
3097.1179,99.1571
3098.0820,99.1428
3099.0464,99.1314
3100.0105,99.1238
3100.9749,99.1213
3101.9390,99.1239
3102.9033,99.1293
3103.8674,99.1333
3104.8318,99.1308
3105.7959,99.1187
3106.7603,99.0976
3107.7244,99.0713
3108.6887,99.0457
3109.6528,99.0251
3110.6172,99.0101
3111.5813,98.9975
3112.5457,98.9824
3113.5098,98.9612
3114.4741,98.934
3115.4382,98.9046
3116.4026,98.8776
3117.3667,98.856
3118.3311,98.84
3119.2952,98.8275
3120.2595,98.8163
3121.2236,98.8051
3122.1880,98.7945
3123.1521,98.7861
3124.1165,98.7813
3125.0806,98.78
3126.0449,98.7805
3127.0090,98.779
3127.9734,98.771
3128.9375,98.7535
3129.9019,98.7271
3130.8660,98.6973
3131.8303,98.6724
3132.7944,98.6605
3133.7588,98.6648
3134.7229,98.6814
3135.6873,98.7014
3136.6514,98.7148
3137.6157,98.7155
3138.5798,98.703
3139.5442,98.6818
3140.5083,98.6576
3141.4727,98.6348
3142.4368,98.6146
3143.4011,98.5959
3144.3652,98.5776
3145.3296,98.5605
3146.2937,98.5473
3147.2581,98.5411
3148.2222,98.5429
3149.1865,98.5502
3150.1506,98.5567
3151.1150,98.5552
3152.0791,98.541
3153.0435,98.514
3154.0076,98.479
3154.9719,98.4426
3155.9360,98.4102
3156.9004,98.3838
3157.8645,98.3626
3158.8289,98.3446
3159.7930,98.3287
3160.7573,98.315
3161.7214,98.3038
3162.6858,98.2941
3163.6499,98.2834
3164.6143,98.2686
3165.5784,98.2485
3166.5427,98.2249
3167.5068,98.2021
3168.4712,98.1843
3169.4353,98.2687
3170.3997,98.2597
3171.3638,98.2471
3172.3281,98.226
3173.2922,98.1952
3174.2566,98.1579
3175.2207,98.1204
3176.1851,98.0882
3177.1492,98.064
3178.1135,98.0469
3179.0776,98.0335
3180.0420,98.0202
3181.0061,98.0054
3181.9705,97.9895
3182.9346,97.974
3183.8989,97.96
3184.8630,97.9474
3185.8274,97.9349
3186.7915,97.9204
3187.7559,97.903
3188.7200,97.8827
3189.6843,97.8615
3190.6484,97.8412
3191.6128,97.823
3192.5769,97.8059
3193.5413,97.7877
3194.5054,97.766
3195.4697,97.7395
3196.4338,97.709
3197.3982,97.6772
3198.3623,97.6474
3199.3267,97.623
3200.2908,97.6062
3201.2551,97.5977
3202.2192,97.5956
3203.1836,97.596
3204.1477,97.5935
3205.1121,97.5834
3206.0762,97.5639
3207.0405,97.5365
3208.0046,97.505
3208.9690,97.473
3209.9331,97.4424
3210.8975,97.4135
3211.8616,97.3865
3212.8259,97.3631
3213.7900,97.3458
3214.7544,97.3362
3215.7185,97.3323
3216.6829,97.3288
3217.6470,97.3198
3218.6113,97.3017
3219.5754,97.2753
3220.5398,97.2454
3221.5039,97.2178
3222.4683,97.1956
3223.4324,97.179
3224.3967,97.1657
3225.3608,97.1541
3226.3252,97.1446
3227.2893,97.1392
3228.2537,97.1395
3229.2178,97.1446
3230.1821,97.1506
3231.1462,97.153
3232.1106,97.1484
3233.0747,97.1369
3234.0391,97.1209
3235.0032,97.1034
3235.9675,97.0857
3236.9316,97.0674
3237.8960,97.0472
3238.8601,97.0253
3239.8245,97.0034
3240.7886,96.9848
3241.7529,96.9721
3242.7170,96.9659
3243.6814,96.9649
3244.6455,96.9659
3245.6099,96.9653
3246.5740,96.9593
3247.5383,96.9463
3248.5024,96.9272
3249.4668,96.9049
3250.4309,96.8833
3251.3953,96.8654
3252.3594,96.8517
3253.3237,96.8402
3254.2878,96.8281
3255.2522,96.8139
3256.2163,96.7989
3257.1807,96.7859
3258.1448,96.7765
3259.1091,96.7698
3260.0732,96.7623
3261.0376,96.7512
3262.0017,96.7369
3262.9661,96.7231
3263.9302,96.7145
3264.8945,96.7132
3265.8586,96.7161
3266.8230,96.7166
3267.7871,96.7072
3268.7515,96.6843
3269.7156,96.6493
3270.6799,96.6087
3271.6440,96.5704
3272.6084,96.5411
3273.5725,96.5236
3274.5369,96.5161
3275.5010,96.5136
3276.4653,96.5101
3277.4294,96.5015
3278.3938,96.4872
3279.3579,96.4698
3280.3223,96.4534
3281.2864,96.4417
3282.2507,96.4357
3283.2148,96.4334
3284.1792,96.4315
3285.1433,96.4267
3286.1077,96.4177
3287.0718,96.4047
3288.0361,96.3894
3289.0002,96.3732
3289.9646,96.3573
3290.9287,96.342
3291.8931,96.3273
3292.8572,96.3126
3293.8215,96.2967
3294.7856,96.2787
3295.7500,96.258
3296.7141,96.2357
3297.6785,96.2142
3298.6426,96.1975
3299.6069,96.189
3300.5710,96.1898
3301.5354,96.1973
3302.4995,96.2048
3303.4639,96.2041
3304.4280,96.1886
3305.3923,96.1568
3306.3564,96.1136
3307.3208,96.0686
3308.2849,96.0325
3309.2493,96.0122
3310.2134,96.0082
3311.1777,96.0147
3312.1418,96.0227
3313.1062,96.0244
3314.0703,96.0161
3315.0347,95.9991
3315.9988,95.9781
3316.9631,95.9583
3317.9272,95.9426
3318.8916,95.9306
3319.8557,95.9193
3320.8201,95.9052
3321.7842,95.8861
3322.7485,95.8618
3323.7126,95.8344
3324.6770,95.8064
3325.6411,95.7799
3326.6055,95.7561
3327.5696,95.7356
3328.5339,95.7183
3329.4980,95.7044
3330.4624,95.6942
3331.4265,95.6877
3332.3909,95.6846
3333.3550,95.6834
3334.3193,95.6825
3335.2834,95.6803
3336.2478,95.6753
3337.2119,95.6675
3338.1763,95.6572
3339.1404,95.6452
3340.1047,95.6317
3341.0688,95.616
3342.0332,95.5976
3342.9973,95.577
3343.9617,95.5566
3344.9258,95.541
3345.8901,95.5337
3346.8542,95.5356
3347.8186,95.5425
3348.7827,95.5475
3349.7471,95.5432
3350.7112,95.5264
3351.6755,95.4993
3352.6396,95.4682
3353.6040,95.4402
3354.5681,95.4204
3355.5325,95.4096
3356.4966,95.4053
3357.4609,95.4033
3358.4250,95.3993
3359.3894,95.3906
3360.3535,95.3763
3361.3179,95.3571
3362.2820,95.335
3363.2463,95.3131
3364.2104,95.2947
3365.1748,95.2822
3366.1389,95.2762
3367.1033,95.2755
3368.0674,95.2771
3369.0317,95.2781
3369.9958,95.2761
3370.9602,95.2706
3371.9243,95.2625
3372.8887,95.2532
3373.8528,95.2437
3374.8171,95.2346
3375.7813,95.2259
3376.7456,95.2175
3377.7097,95.2095
3378.6741,95.2013
3379.6382,95.1916
3380.6025,95.1791
3381.5667,95.1641
3382.5310,95.1496
3383.4951,95.1404
3384.4595,95.1411
3385.4236,95.1513
3386.3879,95.1654
3387.3521,95.1742
3388.3164,95.1702
3389.2805,95.1518
3390.2449,95.1237
3391.2090,95.0953
3392.1733,95.0754
3393.1375,95.0689
3394.1018,95.0764
3395.0659,95.096
3396.0303,95.1246
3396.9944,95.1573
3397.9587,95.1867
3398.9229,95.2048
3399.8872,95.2062
3400.8513,95.1924
3401.8157,95.172
3402.7798,95.1567
3403.7441,95.155
3404.7083,95.1679
3405.6726,95.1882
3406.6367,95.2054
3407.6011,95.2115
3408.5652,95.204
3409.5295,95.1857
3410.4937,95.1617
3411.4580,95.1367
3412.4221,95.113
3413.3865,95.0913
3414.3506,95.0723
3415.3149,95.0565
3416.2791,95.044
3417.2434,95.0354
3418.2075,95.0323
3419.1719,95.0382
3420.1360,95.057
3421.1003,95.0903
3422.0645,95.1347
3423.0288,95.1826
3423.9929,95.2253
3424.9573,95.2569
3425.9214,95.2771
3426.8857,95.2907
3427.8499,95.3047
3428.8142,95.3247
3429.7783,95.3516
3430.7427,95.382
3431.7068,95.411
3432.6711,95.4356
3433.6353,95.4558
3434.5996,95.4731
3435.5637,95.4869
3436.5281,95.4944
3437.4922,95.4914
3438.4565,95.476
3439.4207,95.4502
3440.3850,95.4198
3441.3491,95.3912
3442.3135,95.3689
3443.2776,95.3548
3444.2419,95.3503
3445.2061,95.3581
3446.1704,95.3816
3447.1345,95.4213
3448.0989,95.4725
3449.0630,95.5262
3450.0273,95.575
3450.9915,95.6153
3451.9558,95.647
3452.9199,95.6705
3453.8843,95.6854
3454.8484,95.6903
3455.8127,95.6849
3456.7769,95.6715
3457.7412,95.6557
3458.7053,95.644
3459.6697,95.6413
3460.6338,95.6488
3461.5981,95.6639
3462.5623,95.683
3463.5266,95.7041
3464.4907,95.728
3465.4551,95.7575
3466.4192,95.7936
3467.3835,95.8336
3468.3477,95.8706
3469.3120,95.8969
3470.2761,95.9081
3471.2405,95.9063
3472.2046,95.8991
3473.1689,95.8953
3474.1331,95.8992
3475.0974,95.9077
3476.0615,95.9118
3477.0259,95.903
3477.9900,95.8798
3478.9543,95.8499
3479.9185,95.8279
3480.8828,95.8271
3481.8469,95.8517
3482.8113,95.8932
3483.7754,95.9373
3484.7397,95.973
3485.7039,95.9988
3486.6682,96.021
3487.6323,96.0479
3488.5967,96.0829
3489.5608,96.1207
3490.5251,96.1505
3491.4893,96.1628
3492.4536,96.1558
3493.4177,96.1373
3494.3821,96.1207
3495.3462,96.1171
3496.3105,96.1264
3497.2747,96.1367
3498.2390,96.1322
3499.2031,96.1049
3500.1675,96.0619
3501.1316,96.0265
3502.0959,96.0274
3503.0601,96.0775
3504.0244,96.1618
3504.9885,96.2484
3505.9529,96.3121
3506.9170,96.3471
3507.8813,96.3651
3508.8455,96.3859
3509.8098,96.4255
3510.7739,96.4849
3511.7383,96.552
3512.7024,96.6116
3513.6667,96.6561
3514.6309,96.6865
3515.5952,96.7089
3516.5593,96.7284
3517.5237,96.7463
3518.4878,96.7589
3519.4521,96.7601
3520.4163,96.7451
3521.3806,96.7146
3522.3447,96.6763
3523.3091,96.6433
3524.2732,96.6283
3525.2375,96.6404
3526.2017,96.6845
3527.1660,96.7617
3528.1301,96.8668
3529.0945,96.9871
3530.0586,97.1044
3531.0229,97.2032
3531.9871,97.2771
3532.9514,97.3299
3533.9155,97.3728
3534.8799,97.4206
3535.8440,97.4843
3536.8083,97.5635
3537.7725,97.6441
3538.7368,97.7058
3539.7009,97.7335
3540.6653,97.7234
3541.6294,97.6829
3542.5938,97.631
3543.5579,97.6002
3544.5222,97.6258
3545.4863,97.7221
3546.4507,97.865
3547.4148,98.0089
3548.3792,98.122
3549.3433,98.2009
3550.3076,98.262
3551.2717,98.3272
3552.2361,98.4123
3553.2002,98.5175
3554.1646,98.6295
3555.1287,98.7324
3556.0930,98.8161
3557.0571,98.8742
3558.0215,98.8995
3558.9856,98.8858
3559.9500,98.835
3560.9141,98.7595
3561.8784,98.6778
3562.8425,98.6044
3563.8069,98.5468
3564.7710,98.5234
3565.7354,98.586
3566.6995,98.781
3567.6638,99.0592
3568.6279,99.2975
3569.5923,99.4279
3570.5564,99.4743
3571.5208,99.4901
3572.4849,99.5068
3573.4492,99.5271
3574.4133,99.5429
3575.3777,99.5507
3576.3418,99.556
3577.3062,99.5656
3578.2703,99.5799
3579.2346,99.5914
3580.1987,99.5913
3581.1631,99.5794
3582.1272,99.565
3583.0916,99.5581
3584.0557,99.558
3585.0200,99.5603
3585.9841,99.5798
3586.9485,99.642
3587.9126,99.7224
3588.8770,99.753
3589.8411,99.6974
3590.8054,99.5836
3591.7695,99.4606
3592.7339,99.3588
3593.6980,99.2873
3594.6624,99.2422
3595.6265,99.2022
3596.5908,99.1627
3597.5549,99.1288
3598.5193,99.1186
3599.4834,99.1488
3600.4478,99.2172
3601.4119,99.3003
3602.3762,99.3736
3603.3403,99.4309
3604.3047,99.4813
3605.2688,99.5366
3606.2332,99.6049
3607.1973,99.6894
3608.1616,99.7781
3609.1257,99.837
3610.0901,99.8291
3611.0542,99.7437
3612.0186,99.6044
3612.9829,99.4559
3613.9470,99.3412
3614.9114,99.2848
3615.8755,99.2876
3616.8398,99.3338
3617.8040,99.4024
3618.7683,99.4683
3619.7324,99.4893
3620.6968,99.4199
3621.6609,99.2643
3622.6252,99.0943
3623.5894,99.0018
3624.5537,99.0373
3625.5178,99.1786
3626.4822,99.3482
3627.4463,99.4812
3628.4106,99.569
3629.3748,99.5921
3630.3391,99.5008
3631.3032,99.3193
3632.2676,99.1431
3633.2317,99.0479
3634.1960,99.0446
3635.1602,99.0936
3636.1245,99.1425
3637.0886,99.1581
3638.0530,99.134
3639.0171,99.0791
3639.9814,99.0024
3640.9456,98.912
3641.9099,98.8219
3642.8740,98.7555
3643.8384,98.7316
3644.8025,98.7368
3645.7668,98.7076
3646.7310,98.5747
3647.6953,98.4079
3648.6594,98.4447
3649.6238,98.7081
3650.5879,98.9047
3651.5522,98.8901
3652.5164,98.7612
3653.4807,98.642
3654.4448,98.5754
3655.4092,98.5367
3656.3733,98.4831
3657.3376,98.3927
3658.3018,98.2782
3659.2661,98.1773
3660.2302,98.1223
3661.1946,98.115
3662.1587,98.1306
3663.1230,98.1468
3664.0872,98.1665
3665.0515,98.2077
3666.0156,98.2715
3666.9800,98.3195
3667.9441,98.3017
3668.9084,98.2194
3669.8726,98.1314
3670.8369,98.0854
3671.8010,98.0858
3672.7654,98.1122
3673.7295,98.1372
3674.6938,98.1591
3675.6580,98.2063
3676.6223,98.2635
3677.5864,98.2719
3678.5508,98.2226
3679.5149,98.1557
3680.4792,98.0994
3681.4434,98.0526
3682.4077,98.0117
3683.3718,97.9928
3684.3362,98.0212
3685.3003,98.0959
3686.2646,98.1651
3687.2288,98.1544
3688.1931,98.0539
3689.1572,97.9554
3690.1216,97.9314
3691.0857,97.9514
3692.0500,97.9705
3693.0142,97.9883
3693.9785,98.0219
3694.9426,98.0796
3695.9070,98.1619
3696.8711,98.2683
3697.8354,98.397
3698.7996,98.5405
3699.7639,98.6838
3700.7280,98.8088
3701.6924,98.8978
3702.6565,98.9368
3703.6208,98.9273
3704.5850,98.8947
3705.5493,98.8739
3706.5134,98.882
3707.4778,98.9057
3708.4419,98.9258
3709.4063,98.9731
3710.3704,99.1384
3711.3347,99.4408
3712.2988,99.7353
3713.2632,99.8695
3714.2273,99.8317
3715.1917,99.702
3716.1558,99.5553
3717.1201,99.4216
3718.0842,99.2948
3719.0486,99.1601
3720.0127,99.017
3720.9771,98.8816
3721.9412,98.7758
3722.9055,98.7143
3723.8696,98.6995
3724.8340,98.7202
3725.7981,98.757
3726.7625,98.7962
3727.7266,98.8413
3728.6909,98.9033
3729.6550,98.9777
3730.6194,99.0288
3731.5835,99.0021
3732.5479,98.8761
3733.5120,98.7301
3734.4763,98.7177
3735.4404,98.876
3736.4048,99.0452
3737.3689,99.0886
3738.3333,99.0502
3739.2974,99.0746
3740.2617,99.2732
3741.2258,99.6501
3742.1902,100.087
3743.1543,100.391
3744.1187,100.415
3745.0828,100.162
3746.0471,99.77
3747.0112,99.405
3747.9756,99.1733
3748.9397,99.1246
3749.9041,99.2459
3750.8682,99.4775
3751.8325,99.6448
3752.7966,99.6084
3753.7610,99.4132
3754.7251,99.195
3755.6895,99.0492
3756.6536,99.0014
3757.6179,99.0358
3758.5820,99.1206
3759.5464,99.2125
3760.5105,99.2733
3761.4749,99.294
3762.4390,99.2922
3763.4033,99.2877
3764.3674,99.289
3765.3318,99.2957
3766.2959,99.3062
3767.2603,99.3235
3768.2244,99.3545
3769.1887,99.4022
3770.1528,99.4548
3771.1172,99.4869
3772.0813,99.4806
3773.0457,99.4433
3774.0098,99.4006
3774.9741,99.3729
3775.9382,99.3611
3776.9026,99.3543
3777.8667,99.3467
3778.8311,99.3376
3779.7952,99.3174
3780.7595,99.2706
3781.7236,99.1952
3782.6880,99.1098
3783.6521,99.044
3784.6165,99.0242
3785.5806,99.0597
3786.5449,99.1367
3787.5090,99.2263
3788.4734,99.3031
3789.4375,99.357
3790.4019,99.3905
3791.3660,99.4062
3792.3303,99.3951
3793.2944,99.3396
3794.2588,99.2321
3795.2229,99.093
3796.1873,98.968
3797.1514,98.8992
3798.1157,98.8958
3799.0798,98.9306
3800.0442,98.9661
3801.0083,98.9838
3801.9727,98.9856
3802.9368,98.9881
3803.9011,99.0225
3804.8652,99.1153
3805.8296,99.2563
3806.7937,99.3886
3807.7581,99.4385
3808.7222,99.3767
3809.6865,99.2549
3810.6506,99.1674
3811.6150,99.1756
3812.5791,99.262
3813.5435,99.3428
3814.5076,99.3306
3815.4719,99.2034
3816.4360,99.0133
3817.4004,98.8372
3818.3645,98.7323
3819.3289,98.724
3820.2930,98.799
3821.2573,98.8937
3822.2214,98.9234
3823.1858,98.8585
3824.1499,98.7483
3825.1143,98.667
3826.0784,98.6597
3827.0427,98.7254
3828.0068,98.8296
3828.9712,98.928
3829.9353,98.9892
3830.8997,99.0056
3831.8638,98.9901
3832.8281,98.9614
3833.7922,98.9271
3834.7566,98.8742
3835.7207,98.7793
3836.6851,98.6382
3837.6492,98.4904
3838.6135,98.3981
3839.5776,98.3954
3840.5420,98.4751
3841.5061,98.6109
3842.4705,98.7669
3843.4346,98.8944
3844.3989,98.9435
3845.3630,98.8951
3846.3274,98.785
3847.2915,98.6924
3848.2559,98.7012
3849.2200,98.8538
3850.1843,99.1205
3851.1484,99.412
3852.1128,99.6632
3853.0769,99.869
3854.0413,99.9349
3855.0054,99.7377
3855.9697,99.3598
3856.9338,98.9945
3857.8982,98.7673
3858.8623,98.692
3859.8267,98.7027
3860.7908,98.709
3861.7551,98.66
3862.7192,98.5817
3863.6836,98.5432
3864.6477,98.5815
3865.6121,98.6768
3866.5762,98.7814
3867.5405,98.8486
3868.5046,98.8518
3869.4690,98.8017
3870.4331,98.7433
3871.3975,98.7196
3872.3616,98.7385
3873.3259,98.7812
3874.2900,98.8311
3875.2544,98.8844
3876.2185,98.9376
3877.1829,98.9748
3878.1470,98.9705
3879.1113,98.9114
3880.0754,98.819
3881.0398,98.7451
3882.0039,98.7396
3882.9683,98.8206
3883.9324,98.964
3884.8967,99.1134
3885.8608,99.2073
3886.8252,99.2161
3887.7893,99.1546
3888.7537,99.06
3889.7178,98.964
3890.6821,98.8876
3891.6462,98.8405
3892.6106,98.8136
3893.5747,98.7915
3894.5391,98.7782
3895.5032,98.7911
3896.4675,98.8301
3897.4316,98.8683
3898.3960,98.8734
3899.3601,98.8341
3900.3245,98.7659
3901.2886,98.6969
3902.2529,98.6585
3903.2170,98.674
3904.1814,98.7385
3905.1455,98.8195
3906.1099,98.8871
3907.0740,98.9355
3908.0383,98.9738
3909.0024,99.0073
3909.9668,99.0311
3910.9309,99.0361
3911.8953,99.0178
3912.8594,98.9792
3913.8237,98.9291
3914.7878,98.8796
3915.7522,98.8461
3916.7163,98.8412
3917.6807,98.8598
3918.6448,98.8749
3919.6091,98.8573
3920.5732,98.8002
3921.5376,98.7205
3922.5017,98.6468
3923.4661,98.6047
3924.4302,98.6025
3925.3945,98.6246
3926.3586,98.6446
3927.3230,98.645
3928.2871,98.6254
3929.2515,98.599
3930.2156,98.5881
3931.1799,98.6144
3932.1440,98.6815
3933.1084,98.7687
3934.0725,98.8473
3935.0369,98.9011
3936.0010,98.9288
3936.9653,98.9342
3937.9294,98.9181
3938.8938,98.8796
3939.8579,98.8221
3940.8223,98.7589
3941.7864,98.7095
3942.7507,98.6866
3943.7148,98.6852
3944.6792,98.6877
3945.6433,98.6774
3946.6077,98.6492
3947.5718,98.6131
3948.5361,98.5898
3949.5002,98.5972
3950.4646,98.6365
3951.4287,98.6929
3952.3931,98.7468
3953.3572,98.7841
3954.3215,98.7993
3955.2856,98.7943
3956.2500,98.7755
3957.2141,98.7511
3958.1785,98.7284
3959.1426,98.7141
3960.1069,98.7139
3961.0710,98.7312
3962.0354,98.7641
3962.9995,98.8046
3963.9639,98.8413
3964.9280,98.8643
3965.8923,98.8689
3966.8564,98.8568
3967.8208,98.8335
3968.7849,98.8054
3969.7493,98.7778
3970.7134,98.7537
3971.6777,98.736
3972.6418,98.7284
3973.6062,98.7344
3974.5703,98.7552
3975.5347,98.7873
3976.4988,98.8228
3977.4631,98.8529
3978.4272,98.872
3979.3916,98.8788
3980.3557,98.876
3981.3201,98.8677
3982.2842,98.8564
3983.2485,98.8426
3984.2126,98.8253
3985.1770,98.8042
3986.1411,98.7809
3987.1055,98.7575
3988.0696,98.736
3989.0339,98.7171
3989.9980,98.7011
3990.9624,98.6888
3991.9265,98.6829
3992.8909,98.686
3993.8550,98.699
3994.8193,98.7183
3995.7834,98.7379
3996.7478,98.7516
3997.7119,98.7564
3998.6763,98.7544
3999.6404,98.7506
4000.6047,98.5538

##### Extended Information
[Comments]
Sample name
Comment
User
Division
Company,HANKYONG

[Detailed Information]
Creation date,4/24/2024 2:24 PM

Data array type,Linear data array
Horizontal axis,Wavenumber [cm-1]
Vertical axis,%T
Start,649.893 cm-1
End,4000.6 cm-1
Data interval,0.964233 cm-1
Data points,3476    

[Measurement Information]
Model Name,FT/IR-4700typeA
Serial Number,D056761788

Accessory,ATR PRO ONE
Accessory S/N,C174761809
Incident angle,45 deg

Measurement Date,4/24/2024 2:22 PM

Light Source,Standard
Detector,TGS
Accumulation,32
Resolution,4 cm-1
Zero Filling,On
Apodization,Cosine
Gain,Auto (4)
Aperture,Auto (7.1 mm)
Scanning Speed,Auto (2 mm/sec)
Filter,Auto (30000 Hz)

