TITLE,
DATA TYPE,INFRARED SPECTRUM
ORIGIN,JASCO
OWNER,
DATE,24/04/24
TIME,15:22:53
SPECTROMETER/DATA SYSTEM,
LOCALE,1033
RESOLUTION,
DELTAX,0.964233
XUNITS,1/CM
YUNITS,TRANSMITTANCE
FIRSTX,  649.8934
LASTX, 4000.6047
NPOINTS,    3476
FIRSTY,    99.46747
MAXY,   101.41432
MINY,    83.70399
XYDATA
649.8934,99.4675
650.8576,99.561
651.8218,99.6603
652.7861,99.7561
653.7503,99.8399
654.7145,99.8414
655.6788,99.8235
656.6430,99.8046
657.6072,99.7898
658.5715,99.7767
659.5357,99.7576
660.4999,99.7279
661.4642,99.6953
662.4284,99.6816
663.3926,99.7158
664.3569,99.8293
665.3211,100.053
666.2853,100.402
667.2496,100.82
668.2138,101.114
669.1780,101.095
670.1423,100.836
671.1065,100.548
672.0707,100.345
673.0350,100.242
673.9992,100.215
674.9634,100.228
675.9277,100.252
676.8919,100.266
677.8561,100.27
678.8204,100.269
679.7846,100.265
680.7488,100.259
681.7131,100.25
682.6773,100.242
683.6415,100.24
684.6058,100.247
685.5700,100.257
686.5342,100.259
687.4985,100.241
688.4627,100.198
689.4269,100.135
690.3912,100.059
691.3554,100.024
692.3196,100.013
693.2839,100.004
694.2481,99.9951
695.2123,99.9874
696.1766,99.9816
697.1408,99.9735
698.1050,99.9586
699.0693,99.9367
700.0335,99.9134
700.9977,99.8961
701.9620,99.89
702.9262,99.8955
703.8904,99.9083
704.8547,99.9231
705.8189,99.9367
706.7831,99.95
707.7474,99.9672
708.7116,99.993
709.6758,100.029
710.6401,100.072
711.6043,100.113
712.5685,100.144
713.5328,100.161
714.4970,100.166
715.4612,100.149
716.4255,100.171
717.3897,100.216
718.3539,100.283
719.3182,100.354
720.2824,100.407
721.2466,100.424
722.2109,100.403
723.1751,100.356
724.1393,100.298
725.1036,100.241
726.0678,100.19
727.0320,100.145
727.9963,100.107
728.9605,100.079
729.9247,100.068
730.8890,100.074
731.8532,100.094
732.8174,100.112
733.7817,100.115
734.7459,100.091
735.7101,100.043
736.6744,99.9842
737.6386,99.9327
738.6028,99.9029
739.5671,99.8982
740.5313,99.9093
741.4955,99.9196
742.4598,99.9137
743.4240,99.8842
744.3882,99.8343
745.3525,99.7744
746.3167,99.7166
747.2809,99.6698
748.2452,99.6378
749.2094,99.6196
750.1736,99.6112
751.1379,99.6059
752.1021,99.595
753.0663,99.5695
754.0306,99.5222
754.9948,99.4504
755.9590,99.3573
756.9233,99.2512
757.8875,99.1421
758.8517,99.0397
759.8160,98.9513
760.7802,98.8815
761.7444,98.8332
762.7087,98.8067
763.6729,98.8004
764.6371,98.8097
765.6014,98.8291
766.5656,98.8537
767.5298,98.8804
768.4941,98.9085
769.4583,98.9382
770.4225,98.9684
771.3868,98.9967
772.3510,99.0199
773.3152,99.0361
774.2795,99.0459
775.2437,99.0511
776.2079,99.0534
777.1722,99.0524
778.1364,99.0466
779.1006,99.0341
780.0649,99.0154
781.0291,98.9934
781.9933,98.9726
782.9576,98.9563
783.9218,98.9449
784.8860,98.9357
785.8503,98.9234
786.8145,98.9024
787.7787,98.8691
788.7430,98.8236
789.7072,98.7693
790.6714,98.7111
791.6357,98.6536
792.5999,98.5986
793.5641,98.5456
794.5284,98.494
795.4926,98.4445
796.4568,98.4002
797.4211,98.3641
798.3853,98.3358
799.3495,98.3106
800.3138,98.2806
801.2780,98.2393
802.2422,98.1843
803.2065,98.1193
804.1707,98.051
805.1349,97.9863
806.0992,97.9296
807.0634,97.8822
808.0276,97.8429
808.9919,97.8093
809.9561,97.7783
810.9203,97.7473
811.8846,97.7148
812.8488,97.6813
813.8130,97.6485
814.7773,97.618
815.7415,97.5897
816.7057,97.5613
817.6700,97.5292
818.6342,97.4901
819.5984,97.4438
820.5627,97.3937
821.5269,97.3466
822.4911,97.3102
823.4554,97.2912
824.4196,97.2924
825.3839,97.3122
826.3481,97.3454
827.3123,97.3857
828.2766,97.4274
829.2408,97.4667
830.2050,97.5004
831.1693,97.5254
832.1335,97.5385
833.0977,97.5379
834.0620,97.5254
835.0262,97.5059
835.9904,97.4858
836.9547,97.4698
837.9189,97.4592
838.8831,97.4527
839.8474,97.449
840.8116,97.4485
841.7758,97.4532
842.7401,97.4652
843.7043,97.4843
844.6685,97.5085
845.6328,97.5347
846.5970,97.5598
847.5612,97.5815
848.5255,97.5986
849.4897,97.611
850.4539,97.6212
851.4182,97.6348
852.3824,97.6595
853.3466,97.7026
854.3109,97.7673
855.2751,97.8512
856.2393,97.9473
857.2036,98.0473
858.1678,98.1449
859.1320,98.2379
860.0963,98.3281
861.0605,98.4195
862.0247,98.515
862.9890,98.6145
863.9532,98.7138
864.9174,98.8063
865.8817,98.8861
866.8459,98.9513
867.8101,99.0049
868.7744,99.0518
869.7386,99.0952
870.7028,99.1341
871.6671,99.1655
872.6313,99.1887
873.5955,99.2089
874.5598,99.2358
875.5240,99.2764
876.4882,99.3289
877.4525,99.3804
878.4167,99.4127
879.3809,99.4129
880.3452,99.3809
881.3094,99.3302
882.2736,99.2806
883.2379,99.2491
884.2021,99.2432
885.1663,99.2618
886.1306,99.2998
887.0948,99.3515
888.0590,99.4115
889.0233,99.4726
889.9875,99.5231
890.9517,99.5485
891.9160,99.5365
892.8802,99.4824
893.8444,99.3928
894.8087,99.2827
895.7729,99.1692
896.7371,99.0643
897.7014,98.971
898.6656,98.8827
899.6298,98.7877
900.5941,98.6745
901.5583,98.5367
902.5225,98.3746
903.4868,98.1953
904.4510,98.0103
905.4152,97.8319
906.3795,97.6702
907.3437,97.5304
908.3079,97.4126
909.2722,97.3136
910.2364,97.2312
911.2006,97.1671
912.1649,97.1283
913.1291,97.124
914.0933,97.161
915.0576,97.2399
916.0218,97.355
916.9860,97.4977
917.9503,97.6612
918.9145,97.8426
919.8787,98.0417
920.8430,98.2568
921.8072,98.4816
922.7714,98.705
923.7357,98.9152
924.6999,99.1031
925.6641,99.2657
926.6284,99.405
927.5926,99.5255
928.5568,99.6313
929.5211,99.7245
930.4853,99.8051
931.4495,99.8713
932.4138,99.9203
933.3780,99.9692
934.3422,100.034
935.3065,100.078
936.2707,100.105
937.2349,100.123
938.1992,100.138
939.1634,100.156
940.1276,100.177
941.0919,100.201
942.0561,100.225
943.0203,100.249
943.9846,100.274
944.9488,100.298
945.9130,100.319
946.8773,100.334
947.8415,100.338
948.8057,100.332
949.7700,100.321
950.7342,100.311
951.6984,100.305
952.6627,100.303
953.6269,100.298
954.5911,100.283
955.5554,100.257
956.5196,100.219
957.4838,100.177
958.4481,100.137
959.4123,100.103
960.3765,100.074
961.3408,100.045
962.3050,100.009
963.2692,99.9626
964.2335,99.9049
965.1977,99.8415
966.1619,99.7809
967.1262,99.7316
968.0904,99.699
969.0546,99.6828
970.0189,99.6775
970.9831,99.6743
971.9473,99.6651
972.9116,99.6447
973.8758,99.6118
974.8400,99.5674
975.8043,99.5132
976.7685,99.4493
977.7327,99.3745
978.6970,99.2873
979.6612,99.1872
980.6254,99.0766
981.5897,98.9601
982.5539,98.8435
983.5181,98.732
984.4824,98.6273
985.4466,98.5272
986.4108,98.4263
987.3751,98.3183
988.3393,98.1984
989.3035,98.0653
990.2678,97.9208
991.2320,97.7678
992.1962,97.6086
993.1605,97.4434
994.1247,97.2712
995.0889,97.0908
996.0532,96.9022
997.0174,96.7071
997.9816,96.5085
998.9459,96.3093
999.9101,96.1108
1000.8743,95.9113
1001.8386,95.7059
1002.8028,95.4877
1003.7670,95.251
1004.7313,94.9942
1005.6955,94.7203
1006.6597,94.4356
1007.6240,94.1462
1008.5882,93.8544
1009.5524,93.5588
1010.5167,93.2564
1011.4809,92.9464
1012.4451,92.6323
1013.4094,92.3218
1014.3736,92.0247
1015.3378,91.749
1016.3021,91.4986
1017.2663,91.2714
1018.2305,91.0616
1019.1948,90.8638
1020.1590,90.6793
1021.1232,90.5197
1022.0875,90.405
1023.0517,90.3539
1024.0160,90.3719
1024.9802,90.4419
1025.9445,90.528
1026.9087,90.5906
1027.8729,90.6091
1028.8372,90.5967
1029.8014,90.598
1030.7656,90.6701
1031.7299,90.8584
1032.6941,91.1801
1033.6583,91.622
1034.6226,92.1489
1035.5868,92.7188
1036.5510,93.2963
1037.5153,93.8595
1038.4795,94.3998
1039.4437,94.9169
1040.4080,95.4127
1041.3722,95.8858
1042.3364,96.3296
1043.3007,96.7342
1044.2649,97.0905
1045.2291,97.3956
1046.1934,97.6532
1047.1576,97.8714
1048.1218,98.0567
1049.0861,98.2107
1050.0503,98.3318
1051.0145,98.4217
1051.9788,98.4898
1052.9430,98.5522
1053.9072,98.6225
1054.8715,98.7016
1055.8357,98.7732
1056.7999,98.812
1057.7642,98.8024
1058.7284,98.7557
1059.6926,98.7147
1060.6569,98.7371
1061.6211,98.8672
1062.5853,99.1097
1063.5496,99.3938
1064.5138,99.6488
1065.4780,99.8045
1066.4423,99.813
1067.4065,99.6837
1068.3707,99.4726
1069.3350,99.2486
1070.2992,99.0591
1071.2634,98.9156
1072.2277,98.7988
1073.1919,98.6769
1074.1561,98.5239
1075.1204,98.3273
1076.0846,98.0854
1077.0488,97.7996
1078.0131,97.4686
1078.9773,97.0901
1079.9415,96.6653
1080.9058,96.203
1081.8700,95.7185
1082.8342,95.228
1083.7985,94.7428
1084.7627,94.2651
1085.7269,93.789
1086.6912,93.3063
1087.6554,92.8127
1088.6196,92.3122
1089.5839,91.817
1090.5481,91.3432
1091.5123,90.9049
1092.4766,90.5096
1093.4408,90.1581
1094.4050,89.8466
1095.3693,89.5693
1096.3335,89.3185
1097.2977,89.0829
1098.2620,88.8471
1099.2262,88.5923
1100.1904,88.3009
1101.1547,87.9623
1102.1189,87.5752
1103.0831,87.1475
1104.0474,86.6913
1105.0116,86.2194
1105.9758,85.7439
1106.9401,85.2775
1107.9043,84.8363
1108.8685,84.4403
1109.8328,84.1115
1110.7970,83.8702
1111.7612,83.7314
1112.7255,83.704
1113.6897,83.7907
1114.6539,83.9893
1115.6182,84.2933
1116.5824,84.6924
1117.5466,85.1735
1118.5109,85.7217
1119.4751,86.3231
1120.4393,86.9665
1121.4036,87.6446
1122.3678,88.3525
1123.3320,89.0867
1124.2963,89.843
1125.2605,90.6162
1126.2247,91.3996
1127.1890,92.1862
1128.1532,92.9692
1129.1174,93.7418
1130.0817,94.4973
1131.0459,95.2277
1132.0101,95.924
1132.9744,96.5756
1133.9386,97.1718
1134.9028,97.703
1135.8671,98.1624
1136.8313,98.5465
1137.7955,98.855
1138.7598,99.0899
1139.7240,99.2548
1140.6882,99.3546
1141.6525,99.396
1142.6167,99.3881
1143.5809,99.3425
1144.5452,99.2724
1145.5094,99.1903
1146.4736,99.1066
1147.4379,99.0283
1148.4021,98.9595
1149.3663,98.9029
1150.3306,98.8619
1151.2948,98.8412
1152.2590,98.8457
1153.2233,98.8779
1154.1875,98.9364
1155.1517,99.0149
1156.1160,99.0991
1157.0802,99.1486
1158.0444,99.1966
1159.0087,99.2417
1159.9729,99.2844
1160.9371,99.3253
1161.9014,99.3639
1162.8656,99.3987
1163.8298,99.4274
1164.7941,99.4477
1165.7583,99.4564
1166.7225,99.449
1167.6868,99.4197
1168.6510,99.3627
1169.6152,99.2738
1170.5795,99.1514
1171.5437,98.9963
1172.5079,98.8104
1173.4722,98.5952
1174.4364,98.3506
1175.4006,98.0756
1176.3649,97.7691
1177.3291,97.4316
1178.2933,97.0667
1179.2576,96.6815
1180.2218,96.2849
1181.1860,95.8864
1182.1503,95.493
1183.1145,95.1082
1184.0787,94.7321
1185.0430,94.3635
1186.0072,94.001
1186.9714,93.6445
1187.9357,93.2945
1188.8999,92.9515
1189.8641,92.6151
1190.8284,92.2844
1191.7926,91.9591
1192.7568,91.6394
1193.7211,91.3264
1194.6853,91.0198
1195.6495,90.7175
1196.6138,90.4145
1197.5780,90.1046
1198.5422,89.7821
1199.5065,89.3984
1200.4707,89.0511
1201.4349,88.6939
1202.3992,88.3339
1203.3634,87.979
1204.3276,87.6373
1205.2919,87.3154
1206.2561,87.018
1207.2203,86.7487
1208.1846,86.5104
1209.1488,86.3068
1210.1130,86.1422
1211.0773,86.0215
1212.0415,85.9487
1213.0057,85.9264
1213.9700,85.9554
1214.9342,86.0351
1215.8984,86.1641
1216.8627,86.3392
1217.8269,86.5553
1218.7911,86.8055
1219.7554,87.0814
1220.7196,87.3744
1221.6838,87.6769
1222.6481,87.9823
1223.6123,88.2848
1224.5765,88.5787
1225.5408,88.8587
1226.5050,89.1198
1227.4692,89.3577
1228.4335,89.5691
1229.3977,89.7518
1230.3619,89.9046
1231.3262,90.0273
1232.2904,90.1214
1233.2546,90.1908
1234.2189,90.2431
1235.1831,90.2905
1236.1473,90.3478
1237.1116,90.4285
1238.0758,90.5391
1239.0400,90.6753
1240.0043,90.8225
1240.9685,90.9625
1241.9327,91.083
1242.8970,91.1845
1243.8612,91.2802
1244.8254,91.388
1245.7897,91.5196
1246.7539,91.6733
1247.7181,91.8347
1248.6824,91.9827
1249.6466,92.0995
1250.6108,92.1759
1251.5751,92.2122
1252.5393,92.2148
1253.5035,92.1912
1254.4678,92.1468
1255.4320,92.085
1256.3962,92.0071
1257.3605,91.9141
1258.3247,91.8067
1259.2889,91.686
1260.2532,91.5538
1261.2174,91.4131
1262.1816,91.268
1263.1459,91.1228
1264.1101,90.9819
1265.0743,90.8494
1266.0386,90.7294
1267.0028,90.6263
1267.9670,90.5449
1268.9313,90.4895
1269.8955,90.4631
1270.8597,90.4658
1271.8240,90.4947
1272.7882,90.5444
1273.7524,90.609
1274.7167,90.6834
1275.6809,90.7649
1276.6451,90.8524
1277.6094,90.9452
1278.5736,91.0417
1279.5378,91.1391
1280.5021,91.2331
1281.4663,91.3198
1282.4305,91.3966
1283.3948,91.4629
1284.3590,91.5198
1285.3232,91.5688
1286.2875,91.6102
1287.2517,91.6425
1288.2159,91.6631
1289.1802,91.6699
1290.1444,91.6626
1291.1086,91.6434
1292.0729,91.6152
1293.0371,91.5804
1294.0013,91.5396
1294.9656,91.4919
1295.9298,91.4362
1296.8940,91.3719
1297.8583,91.2997
1298.8225,91.2206
1299.7867,91.1359
1300.7510,91.0469
1301.7152,90.956
1302.6794,90.8664
1303.6437,90.7816
1304.6079,90.7044
1305.5721,90.6355
1306.5364,90.5734
1307.5006,90.5155
1308.4648,90.4596
1309.4291,90.4058
1310.3933,90.3561
1311.3575,90.3135
1312.3218,90.2798
1313.2860,90.2548
1314.2502,90.2363
1315.2145,90.2222
1316.1787,90.2114
1317.1429,90.204
1318.1072,90.2007
1319.0714,90.2012
1320.0356,90.2046
1320.9999,90.2102
1321.9641,90.2183
1322.9283,90.2306
1323.8926,90.2498
1324.8568,90.28
1325.8210,90.3253
1326.7853,90.3902
1327.7495,90.4789
1328.7137,90.5945
1329.6780,90.738
1330.6422,90.9072
1331.6064,91.0954
1332.5707,91.2926
1333.5349,91.4902
1334.4991,91.6855
1335.4634,91.8851
1336.4276,92.1032
1337.3918,92.3537
1338.3561,92.6367
1339.3203,92.9324
1340.2845,93.2124
1341.2488,93.4597
1342.2130,93.6748
1343.1772,93.868
1344.1415,94.0493
1345.1057,94.224
1346.0699,94.3911
1347.0342,94.5454
1347.9984,94.6819
1348.9626,94.7987
1349.9269,94.8978
1350.8911,94.9832
1351.8553,95.0593
1352.8196,95.1311
1353.7838,95.2027
1354.7480,95.2758
1355.7123,95.3469
1356.6765,95.4094
1357.6407,95.4586
1358.6050,95.4978
1359.5692,95.5406
1360.5334,95.6038
1361.4977,95.6948
1362.4619,95.8024
1363.4261,95.9069
1364.3904,95.9981
1365.3546,96.0791
1366.3188,96.1596
1367.2831,96.2481
1368.2473,96.3478
1369.2115,96.458
1370.1758,96.5796
1371.1400,96.7223
1372.1042,96.9037
1373.0685,97.1371
1374.0327,97.4141
1374.9969,97.7019
1375.9612,97.9665
1376.9254,98.1954
1377.8896,98.398
1378.8539,98.5896
1379.8181,98.776
1380.7823,98.9487
1381.7466,99.091
1382.7108,99.1912
1383.6750,99.2519
1384.6393,99.2898
1385.6035,99.328
1386.5677,99.3837
1387.5320,99.4618
1388.4962,99.5593
1389.4604,99.67
1390.4247,99.7848
1391.3889,99.8936
1392.3531,99.9853
1393.3174,100.044
1394.2816,100.05
1395.2458,99.994
1396.2101,99.8965
1397.1743,99.7961
1398.1385,99.7301
1399.1028,99.7039
1400.0670,99.6985
1401.0313,99.6902
1401.9955,99.6622
1402.9597,99.6067
1403.9240,99.5187
1404.8882,99.3919
1405.8524,99.221
1406.8167,99.0053
1407.7809,98.7463
1408.7451,98.4411
1409.7094,98.0834
1410.6736,97.6726
1411.6378,97.2218
1412.6021,96.7544
1413.5663,96.2875
1414.5305,95.8199
1415.4948,95.3356
1416.4590,94.8167
1417.4232,94.2599
1418.3875,93.6977
1419.3517,93.2002
1420.3159,92.8244
1421.2802,92.5687
1422.2444,92.3928
1423.2086,92.2608
1424.1729,92.1582
1425.1371,92.0878
1426.1013,92.0614
1427.0656,92.0959
1428.0298,92.2088
1428.9940,92.4044
1429.9583,92.6573
1430.9225,92.9169
1431.8867,93.1355
1432.8510,93.2961
1433.8152,93.4149
1434.7794,93.522
1435.7437,93.6258
1436.7079,93.6904
1437.6721,93.6687
1438.6364,93.5467
1439.6006,93.331
1440.5648,93.0254
1441.5291,92.6342
1442.4933,92.1734
1443.4575,91.6693
1444.4218,91.1479
1445.3860,90.6244
1446.3502,90.1047
1447.3145,89.5986
1448.2787,89.1295
1449.2429,88.7258
1450.2072,88.398
1451.1714,88.1279
1452.1356,87.8838
1453.0999,87.6448
1454.0641,87.4194
1455.0283,87.2432
1455.9926,87.1372
1456.9568,87.0472
1457.9210,86.9197
1458.8853,86.8055
1459.8495,86.7447
1460.8137,86.7186
1461.7780,86.7206
1462.7422,86.7959
1463.7064,87.0228
1464.6707,87.442
1465.6349,87.9914
1466.5991,88.5483
1467.5634,89.0316
1468.5276,89.4395
1469.4918,89.8315
1470.4561,90.3056
1471.4203,90.9535
1472.3845,91.7611
1473.3488,92.5482
1474.3130,93.1307
1475.2772,93.4992
1476.2415,93.7371
1477.2057,93.8999
1478.1699,94.0024
1479.1342,94.0426
1480.0984,94.0175
1481.0626,93.9276
1482.0269,93.7777
1482.9911,93.577
1483.9553,93.3363
1484.9196,93.0665
1485.8838,92.7768
1486.8480,92.4694
1487.8123,92.131
1488.7765,91.7415
1489.7407,91.3213
1490.7050,90.9363
1491.6692,90.6223
1492.6334,90.3569
1493.5977,90.1011
1494.5619,89.8333
1495.5261,89.5543
1496.4904,89.2779
1497.4546,89.0226
1498.4188,88.8096
1499.3831,88.6479
1500.3473,88.5159
1501.3115,88.3742
1502.2758,88.1932
1503.2400,87.9725
1504.2042,87.749
1505.1685,87.5836
1506.1327,87.4887
1507.0969,87.3502
1508.0612,87.1189
1509.0254,86.9235
1509.9896,86.8141
1510.9539,86.747
1511.9181,86.697
1512.8823,86.6924
1513.8466,86.7996
1514.8108,87.0823
1515.7750,87.5512
1516.7393,88.1512
1517.7035,88.8209
1518.6677,89.5736
1519.6320,90.501
1520.5962,91.663
1521.5604,92.9634
1522.5247,94.1895
1523.4889,95.1981
1524.4531,96.0024
1525.4174,96.6923
1526.3816,97.3241
1527.3458,97.885
1528.3101,98.333
1529.2743,98.6525
1530.2385,98.876
1531.2028,99.0695
1532.1670,99.2888
1533.1312,99.5271
1534.0955,99.715
1535.0597,99.7904
1536.0239,99.7488
1536.9882,99.6417
1537.9524,99.5714
1538.9166,99.6763
1539.8809,100.014
1540.8451,100.363
1541.8093,100.45
1542.7736,100.347
1543.7378,100.225
1544.7020,100.133
1545.6663,100.06
1546.6305,100.009
1547.5947,99.9538
1548.5590,99.8917
1549.5232,99.8218
1550.4874,99.7424
1551.4517,99.6493
1552.4159,99.537
1553.3801,99.4012
1554.3444,99.2448
1555.3086,99.0892
1556.2728,98.9834
1557.2371,98.9639
1558.2013,98.9339
1559.1655,98.7469
1560.1298,98.5219
1561.0940,98.402
1562.0582,98.3499
1563.0225,98.2854
1563.9867,98.1683
1564.9509,97.9995
1565.9152,97.8008
1566.8794,97.5931
1567.8436,97.3795
1568.8079,97.1467
1569.7721,96.8931
1570.7363,96.6389
1571.7006,96.3982
1572.6648,96.1611
1573.6290,95.9065
1574.5933,95.6138
1575.5575,95.2681
1576.5217,94.883
1577.4860,94.5153
1578.4502,94.2066
1579.4144,93.9362
1580.3787,93.6573
1581.3429,93.3431
1582.3071,92.9988
1583.2714,92.6488
1584.2356,92.3167
1585.1998,92.0108
1586.1641,91.7257
1587.1283,91.4552
1588.0925,91.2006
1589.0568,90.9691
1590.0210,90.7665
1590.9852,90.5927
1591.9495,90.4433
1592.9137,90.3131
1593.8779,90.1979
1594.8422,90.0931
1595.8064,89.9948
1596.7706,89.9013
1597.7349,89.8149
1598.6991,89.7403
1599.6633,89.6813
1600.6276,89.639
1601.5918,89.6112
1602.5560,89.5944
1603.5203,89.5859
1604.4845,89.584
1605.4487,89.5886
1606.4130,89.6019
1607.3772,89.6298
1608.3414,89.6793
1609.3057,89.7509
1610.2699,89.8344
1611.2341,89.9134
1612.1984,89.9803
1613.1626,90.0527
1614.1268,90.1837
1615.0911,90.4424
1616.0553,90.8461
1617.0195,91.3086
1617.9838,91.7153
1618.9480,92.0308
1619.9122,92.2907
1620.8765,92.5532
1621.8407,92.865
1622.8049,93.2317
1623.7692,93.6057
1624.7334,93.9286
1625.6976,94.1866
1626.6619,94.41
1627.6261,94.6288
1628.5903,94.8416
1629.5546,95.0199
1630.5188,95.1352
1631.4830,95.1835
1632.4473,95.1966
1633.4115,95.2421
1634.3757,95.3936
1635.3400,95.6492
1636.3042,95.8936
1637.2684,96.0406
1638.2327,96.1158
1639.1969,96.1606
1640.1611,96.1819
1641.1254,96.1711
1642.0896,96.1247
1643.0538,96.0576
1644.0181,96.0067
1644.9823,96.0148
1645.9465,96.0809
1646.9108,96.1369
1647.8750,96.1193
1648.8392,96.0248
1649.8035,95.8811
1650.7677,95.7352
1651.7319,95.6548
1652.6962,95.6599
1653.6604,95.6601
1654.6246,95.6202
1655.5889,95.5988
1656.5531,95.5938
1657.5173,95.5663
1658.4816,95.4994
1659.4458,95.4066
1660.4100,95.3135
1661.3743,95.2344
1662.3385,95.161
1663.3027,95.0802
1664.2670,94.9894
1665.2312,94.8928
1666.1954,94.798
1667.1597,94.7204
1668.1239,94.6758
1669.0881,94.6595
1670.0524,94.6414
1671.0166,94.5972
1671.9808,94.528
1672.9451,94.4478
1673.9093,94.3731
1674.8735,94.3197
1675.8378,94.2973
1676.8020,94.3013
1677.7662,94.3123
1678.7305,94.3056
1679.6947,94.2672
1680.6589,94.2079
1681.6232,94.1653
1682.5874,94.1763
1683.5516,94.223
1684.5159,94.2451
1685.4801,94.2369
1686.4443,94.2304
1687.4086,94.2284
1688.3728,94.2125
1689.3370,94.1679
1690.3013,94.09
1691.2655,93.9821
1692.2297,93.8531
1693.1940,93.7168
1694.1582,93.5903
1695.1224,93.4883
1696.0867,93.4126
1697.0509,93.3451
1698.0151,93.2581
1698.9794,93.1422
1699.9436,93.0241
1700.9078,92.9428
1701.8721,92.9124
1702.8363,92.9154
1703.8005,92.9227
1704.7648,92.9129
1705.7290,92.8794
1706.6932,92.8294
1707.6575,92.7777
1708.6217,92.7354
1709.5859,92.703
1710.5502,92.6741
1711.5144,92.6432
1712.4786,92.6123
1713.4429,92.5962
1714.4071,92.6226
1715.3713,92.7176
1716.3356,92.8673
1717.2998,93.0113
1718.2640,93.1178
1719.2283,93.2122
1720.1925,93.3182
1721.1567,93.4363
1722.1210,93.5591
1723.0852,93.6807
1724.0494,93.7981
1725.0137,93.9111
1725.9779,94.0224
1726.9421,94.1337
1727.9064,94.2418
1728.8706,94.3396
1729.8348,94.4257
1730.7991,94.5172
1731.7633,94.6496
1732.7275,94.8481
1733.6918,95.0886
1734.6560,95.3162
1735.6202,95.5041
1736.5845,95.6584
1737.5487,95.7959
1738.5129,95.9351
1739.4772,96.0899
1740.4414,96.2602
1741.4056,96.4308
1742.3699,96.5855
1743.3341,96.7197
1744.2983,96.8373
1745.2626,96.9454
1746.2268,97.0518
1747.1910,97.1668
1748.1553,97.2979
1749.1195,97.4399
1750.0837,97.5756
1751.0480,97.6928
1752.0122,97.7943
1752.9764,97.8886
1753.9407,97.983
1754.9049,98.0815
1755.8691,98.1833
1756.8334,98.2811
1757.7976,98.3667
1758.7618,98.4388
1759.7261,98.5062
1760.6903,98.5797
1761.6545,98.6615
1762.6188,98.7424
1763.5830,98.8104
1764.5472,98.8604
1765.5115,98.8958
1766.4757,98.9264
1767.4399,98.9645
1768.4042,99.0225
1769.3684,99.1088
1770.3326,99.2219
1771.2969,99.3438
1772.2611,99.4447
1773.2253,99.5084
1774.1896,99.5437
1775.1538,99.5675
1776.1180,99.5896
1777.0823,99.6146
1778.0465,99.646
1779.0107,99.684
1779.9750,99.723
1780.9392,99.7555
1781.9034,99.7793
1782.8677,99.7991
1783.8319,99.8216
1784.7961,99.8475
1785.7604,99.8709
1786.7246,99.8831
1787.6888,99.8803
1788.6531,99.8695
1789.6173,99.8685
1790.5815,99.896
1791.5458,99.9522
1792.5100,100.013
1793.4742,100.052
1794.4385,100.069
1795.4027,100.069
1796.3669,100.061
1797.3312,100.051
1798.2954,100.049
1799.2596,100.057
1800.2239,100.073
1801.1881,100.087
1802.1523,100.095
1803.1166,100.096
1804.0808,100.092
1805.0450,100.085
1806.0093,100.077
1806.9735,100.072
1807.9377,100.075
1808.9020,100.085
1809.8662,100.099
1810.8304,100.109
1811.7947,100.11
1812.7589,100.101
1813.7231,100.088
1814.6874,100.076
1815.6516,100.069
1816.6158,100.07
1817.5801,100.073
1818.5443,100.073
1819.5085,100.065
1820.4728,100.049
1821.4370,100.028
1822.4012,100.01
1823.3655,99.9973
1824.3297,99.9923
1825.2939,99.9927
1826.2582,99.9971
1827.2224,100.013
1828.1866,100.041
1829.1509,100.068
1830.1151,100.085
1831.0793,100.088
1832.0436,100.083
1833.0078,100.078
1833.9720,100.075
1834.9363,100.076
1835.9005,100.081
1836.8647,100.085
1837.8290,100.079
1838.7932,100.061
1839.7574,100.033
1840.7217,100.004
1841.6859,99.9891
1842.6501,100
1843.6144,100.035
1844.5786,100.075
1845.5428,100.103
1846.5071,100.115
1847.4713,100.116
1848.4355,100.112
1849.3998,100.106
1850.3640,100.099
1851.3282,100.094
1852.2925,100.092
1853.2567,100.09
1854.2209,100.091
1855.1852,100.091
1856.1494,100.092
1857.1136,100.091
1858.0779,100.088
1859.0421,100.084
1860.0063,100.079
1860.9706,100.077
1861.9348,100.076
1862.8990,100.076
1863.8633,100.076
1864.8275,100.081
1865.7917,100.095
1866.7560,100.12
1867.7202,100.152
1868.6844,100.173
1869.6487,100.175
1870.6129,100.164
1871.5771,100.15
1872.5414,100.138
1873.5056,100.13
1874.4698,100.127
1875.4341,100.128
1876.3983,100.129
1877.3625,100.13
1878.3268,100.13
1879.2910,100.129
1880.2552,100.131
1881.2195,100.134
1882.1837,100.137
1883.1479,100.137
1884.1122,100.133
1885.0764,100.128
1886.0406,100.125
1887.0049,100.129
1887.9691,100.142
1888.9333,100.158
1889.8976,100.17
1890.8618,100.176
1891.8260,100.175
1892.7903,100.174
1893.7545,100.176
1894.7188,100.18
1895.6830,100.185
1896.6472,100.188
1897.6115,100.187
1898.5757,100.183
1899.5399,100.18
1900.5042,100.181
1901.4684,100.185
1902.4326,100.189
1903.3969,100.192
1904.3611,100.194
1905.3253,100.195
1906.2896,100.199
1907.2538,100.207
1908.2180,100.219
1909.1823,100.23
1910.1465,100.236
1911.1107,100.233
1912.0750,100.223
1913.0392,100.209
1914.0034,100.195
1914.9677,100.185
1915.9319,100.183
1916.8961,100.188
1917.8604,100.198
1918.8246,100.208
1919.7888,100.22
1920.7531,100.233
1921.7173,100.247
1922.6815,100.26
1923.6458,100.266
1924.6100,100.264
1925.5742,100.254
1926.5385,100.239
1927.5027,100.226
1928.4669,100.217
1929.4312,100.213
1930.3954,100.212
1931.3596,100.213
1932.3239,100.213
1933.2881,100.212
1934.2523,100.211
1935.2166,100.208
1936.1808,100.204
1937.1450,100.199
1938.1093,100.194
1939.0735,100.191
1940.0377,100.192
1941.0020,100.2
1941.9662,100.212
1942.9304,100.222
1943.8947,100.228
1944.8589,100.228
1945.8231,100.223
1946.7874,100.216
1947.7516,100.207
1948.7158,100.197
1949.6801,100.188
1950.6443,100.18
1951.6085,100.175
1952.5728,100.173
1953.5370,100.173
1954.5012,100.174
1955.4655,100.174
1956.4297,100.173
1957.3939,100.171
1958.3582,100.169
1959.3224,100.168
1960.2866,100.167
1961.2509,100.166
1962.2151,100.166
1963.1793,100.167
1964.1436,100.172
1965.1078,100.179
1966.0720,100.186
1967.0363,100.189
1968.0005,100.187
1968.9647,100.18
1969.9290,100.172
1970.8932,100.168
1971.8574,100.168
1972.8217,100.172
1973.7859,100.176
1974.7501,100.178
1975.7144,100.177
1976.6786,100.174
1977.6428,100.171
1978.6071,100.168
1979.5713,100.166
1980.5355,100.163
1981.4998,100.159
1982.4640,100.158
1983.4282,100.159
1984.3925,100.163
1985.3567,100.17
1986.3209,100.175
1987.2852,100.179
1988.2494,100.179
1989.2136,100.178
1990.1779,100.178
1991.1421,100.178
1992.1063,100.177
1993.0706,100.175
1994.0348,100.17
1994.9990,100.163
1995.9633,100.157
1996.9275,100.153
1997.8917,100.151
1998.8560,100.153
1999.8202,100.156
2000.7844,100.159
2001.7487,100.161
2002.7129,100.159
2003.6771,100.155
2004.6414,100.148
2005.6056,100.142
2006.5698,100.137
2007.5341,100.134
2008.4983,100.134
2009.4625,100.133
2010.4268,100.13
2011.3910,100.126
2012.3552,100.121
2013.3195,100.12
2014.2837,100.124
2015.2479,100.133
2016.2122,100.144
2017.1764,100.151
2018.1406,100.153
2019.1049,100.149
2020.0691,100.141
2021.0333,100.132
2021.9976,100.126
2022.9618,100.124
2023.9260,100.123
2024.8903,100.124
2025.8545,100.122
2026.8187,100.119
2027.7830,100.114
2028.7472,100.109
2029.7114,100.104
2030.6757,100.101
2031.6399,100.099
2032.6041,100.099
2033.5684,100.099
2034.5326,100.098
2035.4968,100.097
2036.4611,100.095
2037.4253,100.094
2038.3895,100.093
2039.3538,100.093
2040.3180,100.094
2041.2822,100.096
2042.2465,100.097
2043.2107,100.098
2044.1749,100.097
2045.1392,100.096
2046.1034,100.093
2047.0676,100.09
2048.0320,100.086
2048.9961,100.08
2049.9604,100.075
2050.9246,100.07
2051.8889,100.068
2052.8530,100.068
2053.8174,100.069
2054.7815,100.07
2055.7458,100.068
2056.7100,100.066
2057.6743,100.063
2058.6384,100.062
2059.6028,100.062
2060.5669,100.065
2061.5313,100.07
2062.4954,100.077
2063.4597,100.083
2064.4238,100.087
2065.3882,100.088
2066.3523,100.084
2067.3167,100.076
2068.2808,100.067
2069.2451,100.059
2070.2092,100.055
2071.1736,100.054
2072.1377,100.057
2073.1021,100.061
2074.0662,100.065
2075.0305,100.066
2075.9946,100.065
2076.9590,100.061
2077.9231,100.056
2078.8875,100.05
2079.8516,100.046
2080.8159,100.045
2081.7800,100.048
2082.7444,100.055
2083.7085,100.066
2084.6729,100.077
2085.6370,100.087
2086.6013,100.093
2087.5654,100.095
2088.5298,100.094
2089.4939,100.09
2090.4583,100.084
2091.4224,100.078
2092.3867,100.074
2093.3508,100.072
2094.3152,100.072
2095.2793,100.073
2096.2437,100.075
2097.2078,100.074
2098.1721,100.07
2099.1362,100.065
2100.1006,100.061
2101.0647,100.061
2102.0291,100.065
2102.9932,100.072
2103.9575,100.077
2104.9216,100.078
2105.8860,100.075
2106.8501,100.069
2107.8145,100.065
2108.7786,100.065
2109.7429,100.068
2110.7070,100.073
2111.6714,100.076
2112.6355,100.076
2113.5999,100.073
2114.5640,100.068
2115.5283,100.062
2116.4924,100.057
2117.4568,100.052
2118.4209,100.048
2119.3853,100.046
2120.3494,100.045
2121.3137,100.046
2122.2778,100.048
2123.2422,100.05
2124.2063,100.052
2125.1707,100.054
2126.1348,100.056
2127.0991,100.056
2128.0632,100.055
2129.0276,100.051
2129.9917,100.045
2130.9561,100.038
2131.9202,100.032
2132.8845,100.03
2133.8486,100.032
2134.8130,100.037
2135.7771,100.044
2136.7415,100.048
2137.7056,100.049
2138.6699,100.044
2139.6340,100.036
2140.5984,100.027
2141.5625,100.02
2142.5269,100.014
2143.4910,100.01
2144.4553,100.008
2145.4194,100.006
2146.3838,100.006
2147.3479,100.007
2148.3123,100.01
2149.2764,100.013
2150.2407,100.015
2151.2048,100.016
2152.1692,100.015
2153.1333,100.013
2154.0977,100.01
2155.0618,100.009
2156.0261,100.009
2156.9902,100.01
2157.9546,100.012
2158.9187,100.015
2159.8831,100.018
2160.8472,100.022
2161.8115,100.026
2162.7756,100.03
2163.7400,100.033
2164.7041,100.034
2165.6685,100.033
2166.6326,100.03
2167.5969,100.028
2168.5610,100.026
2169.5254,100.026
2170.4895,100.026
2171.4539,100.026
2172.4180,100.026
2173.3823,100.025
2174.3464,100.024
2175.3108,100.023
2176.2749,100.022
2177.2393,100.023
2178.2034,100.024
2179.1677,100.026
2180.1318,100.03
2181.0962,100.035
2182.0603,100.04
2183.0247,100.044
2183.9888,100.045
2184.9531,100.043
2185.9172,100.038
2186.8816,100.032
2187.8457,100.027
2188.8101,100.024
2189.7742,100.026
2190.7385,100.032
2191.7026,100.039
2192.6670,100.045
2193.6311,100.046
2194.5955,100.042
2195.5596,100.034
2196.5239,100.025
2197.4880,100.019
2198.4524,100.017
2199.4165,100.019
2200.3809,100.023
2201.3450,100.026
2202.3093,100.027
2203.2734,100.025
2204.2378,100.021
2205.2019,100.016
2206.1663,100.012
2207.1304,100.01
2208.0947,100.009
2209.0588,100.011
2210.0232,100.014
2210.9873,100.017
2211.9517,100.018
2212.9158,100.016
2213.8801,100.01
2214.8442,100.003
2215.8086,99.9963
2216.7727,99.9919
2217.7371,99.9901
2218.7012,99.9903
2219.6655,99.9913
2220.6296,99.992
2221.5940,99.9917
2222.5581,99.99
2223.5225,99.987
2224.4866,99.9829
2225.4509,99.9782
2226.4150,99.9736
2227.3794,99.9694
2228.3435,99.9657
2229.3079,99.9623
2230.2720,99.9592
2231.2363,99.9568
2232.2004,99.9558
2233.1648,99.9565
2234.1289,99.9582
2235.0933,99.9595
2236.0574,99.9586
2237.0217,99.9549
2237.9858,99.9491
2238.9502,99.943
2239.9143,99.9383
2240.8787,99.9357
2241.8428,99.9346
2242.8071,99.9338
2243.7712,99.9327
2244.7356,99.9313
2245.6997,99.9302
2246.6641,99.9299
2247.6282,99.93
2248.5925,99.9297
2249.5566,99.9277
2250.5210,99.9234
2251.4851,99.9166
2252.4495,99.9078
2253.4136,99.8981
2254.3779,99.8886
2255.3420,99.8803
2256.3064,99.8735
2257.2705,99.8681
2258.2349,99.8633
2259.1990,99.8587
2260.1633,99.854
2261.1274,99.8498
2262.0918,99.8466
2263.0559,99.8447
2264.0203,99.8433
2264.9844,99.8412
2265.9487,99.8373
2266.9128,99.8313
2267.8772,99.8236
2268.8413,99.8153
2269.8057,99.8071
2270.7698,99.7994
2271.7341,99.7924
2272.6982,99.7867
2273.6626,99.7831
2274.6267,99.7824
2275.5911,99.7847
2276.5552,99.7888
2277.5195,99.7928
2278.4836,99.7947
2279.4480,99.7935
2280.4121,99.7889
2281.3765,99.7809
2282.3406,99.7691
2283.3049,99.7435
2284.2690,99.7134
2285.2334,99.6797
2286.1975,99.6438
2287.1619,99.6076
2288.1260,99.572
2289.0903,99.5366
2290.0544,99.5
2291.0188,99.4608
2291.9829,99.4182
2292.9473,99.3723
2293.9114,99.3242
2294.8757,99.2745
2295.8398,99.2237
2296.8042,99.1715
2297.7683,99.1175
2298.7327,99.0606
2299.6968,98.9998
2300.6611,98.9336
2301.6252,98.8608
2302.5896,98.7808
2303.5537,98.6943
2304.5181,98.6039
2305.4822,98.5126
2306.4465,98.4231
2307.4106,98.3362
2308.3750,98.2509
2309.3391,98.166
2310.3035,98.0814
2311.2676,97.9987
2312.2319,97.9197
2313.1960,97.8443
2314.1604,97.7694
2315.1245,97.6898
2316.0889,97.6013
2317.0530,97.5035
2318.0173,97.4012
2318.9814,97.3032
2319.9458,97.2197
2320.9099,97.1596
2321.8743,97.129
2322.8384,97.1295
2323.8027,97.1571
2324.7668,97.2025
2325.7312,97.2526
2326.6953,97.2945
2327.6597,97.3202
2328.6238,97.3296
2329.5881,97.3303
2330.5522,97.3336
2331.5166,97.3485
2332.4807,97.3773
2333.4451,97.4157
2334.4092,97.4576
2335.3735,97.4996
2336.3376,97.5417
2337.3020,97.5852
2338.2661,97.6299
2339.2305,97.6738
2340.1946,97.711
2341.1589,97.7247
2342.1230,97.6821
2343.0874,97.5571
2344.0515,97.3804
2345.0159,97.2388
2345.9800,97.1899
2346.9443,97.2106
2347.9084,97.2345
2348.8728,97.2092
2349.8369,97.1287
2350.8013,97.0394
2351.7654,97.0263
2352.7297,97.1728
2353.6938,97.5034
2354.6582,97.9581
2355.6223,98.445
2356.5867,98.91
2357.5508,99.3342
2358.5151,99.7167
2359.4792,99.9998
2360.4436,100.128
2361.4077,100.105
2362.3721,99.9538
2363.3362,99.6947
2364.3005,99.3531
2365.2646,98.9689
2366.2290,98.5893
2367.1931,98.2499
2368.1575,97.9664
2369.1216,97.741
2370.0859,97.5729
2371.0500,97.4642
2372.0144,97.4191
2372.9785,97.4405
2373.9429,97.5274
2374.9070,97.674
2375.8713,97.8696
2376.8354,98.1005
2377.7998,98.3512
2378.7639,98.6064
2379.7283,98.8533
2380.6924,99.0822
2381.6567,99.2873
2382.6208,99.4663
2383.5852,99.6199
2384.5493,99.7501
2385.5137,99.8424
2386.4778,99.8938
2387.4421,99.9296
2388.4063,99.9523
2389.3706,99.965
2390.3347,99.9709
2391.2991,99.9734
2392.2632,99.975
2393.2275,99.9775
2394.1917,99.9812
2395.1560,99.9859
2396.1201,99.9907
2397.0845,99.9942
2398.0486,99.9954
2399.0129,99.9936
2399.9771,99.9895
2400.9414,99.9848
2401.9055,99.9817
2402.8699,99.9815
2403.8340,99.984
2404.7983,99.9875
2405.7625,99.99
2406.7268,99.9904
2407.6909,99.9887
2408.6553,99.9861
2409.6194,99.9835
2410.5837,99.9813
2411.5479,99.9792
2412.5122,99.9765
2413.4763,99.9727
2414.4407,99.9681
2415.4048,99.9633
2416.3691,99.9591
2417.3333,99.9565
2418.2976,99.9562
2419.2617,99.9586
2420.2261,99.9629
2421.1902,99.9674
2422.1545,99.9703
2423.1187,99.9701
2424.0830,99.9669
2425.0471,99.9619
2426.0115,99.9572
2426.9756,99.9541
2427.9399,99.9533
2428.9041,99.9541
2429.8684,99.9554
2430.8325,99.9563
2431.7969,99.9565
2432.7610,99.9561
2433.7253,99.9554
2434.6895,99.954
2435.6538,99.9514
2436.6179,99.9469
2437.5823,99.9406
2438.5464,99.9334
2439.5107,99.9274
2440.4749,99.925
2441.4392,99.9277
2442.4033,99.935
2443.3677,99.9447
2444.3318,99.9534
2445.2961,99.9582
2446.2603,99.9578
2447.2246,99.9532
2448.1887,99.9468
2449.1531,99.9415
2450.1172,99.939
2451.0815,99.9394
2452.0457,99.9412
2453.0100,99.9426
2453.9741,99.9419
2454.9385,99.9392
2455.9026,99.9353
2456.8669,99.9314
2457.8311,99.9283
2458.7954,99.926
2459.7595,99.9241
2460.7239,99.922
2461.6880,99.9197
2462.6523,99.9177
2463.6165,99.9164
2464.5808,99.9163
2465.5449,99.917
2466.5093,99.918
2467.4734,99.9187
2468.4377,99.9188
2469.4019,99.918
2470.3662,99.9164
2471.3303,99.9141
2472.2947,99.9115
2473.2588,99.9096
2474.2231,99.9093
2475.1873,99.9114
2476.1516,99.9156
2477.1157,99.9203
2478.0801,99.924
2479.0442,99.9254
2480.0085,99.9247
2480.9727,99.9234
2481.9370,99.9233
2482.9011,99.9253
2483.8655,99.9293
2484.8296,99.9341
2485.7939,99.9381
2486.7581,99.9407
2487.7224,99.9413
2488.6865,99.9399
2489.6509,99.9361
2490.6150,99.9299
2491.5793,99.9215
2492.5435,99.9121
2493.5078,99.9035
2494.4719,99.8973
2495.4363,99.894
2496.4004,99.8934
2497.3647,99.8945
2498.3289,99.8967
2499.2932,99.9001
2500.2573,99.905
2501.2217,99.9111
2502.1858,99.9171
2503.1501,99.9208
2504.1143,99.9207
2505.0786,99.9165
2506.0427,99.9102
2507.0071,99.9045
2507.9712,99.9019
2508.9355,99.9024
2509.8997,99.9044
2510.8640,99.905
2511.8281,99.9023
2512.7925,99.8969
2513.7566,99.8909
2514.7209,99.8871
2515.6851,99.8871
2516.6494,99.8908
2517.6135,99.8971
2518.5779,99.9044
2519.5420,99.9121
2520.5063,99.9193
2521.4705,99.9248
2522.4348,99.9271
2523.3989,99.9247
2524.3633,99.9175
2525.3274,99.9075
2526.2917,99.8984
2527.2559,99.8936
2528.2202,99.8949
2529.1843,99.9013
2530.1487,99.9097
2531.1128,99.9165
2532.0771,99.9192
2533.0413,99.9173
2534.0056,99.9124
2534.9697,99.9068
2535.9341,99.903
2536.8982,99.902
2537.8625,99.9034
2538.8267,99.9059
2539.7910,99.9082
2540.7551,99.9097
2541.7195,99.911
2542.6836,99.9131
2543.6479,99.9169
2544.6121,99.9221
2545.5764,99.9274
2546.5405,99.9311
2547.5049,99.9317
2548.4690,99.9288
2549.4333,99.9228
2550.3975,99.915
2551.3618,99.907
2552.3259,99.9006
2553.2903,99.8973
2554.2544,99.8984
2555.2188,99.9039
2556.1829,99.9127
2557.1472,99.9221
2558.1113,99.9294
2559.0757,99.9326
2560.0398,99.9314
2561.0042,99.9268
2561.9683,99.9209
2562.9326,99.9152
2563.8967,99.9108
2564.8611,99.9082
2565.8252,99.9077
2566.7896,99.9096
2567.7537,99.9141
2568.7180,99.9208
2569.6821,99.9283
2570.6465,99.9348
2571.6106,99.9383
2572.5750,99.9383
2573.5391,99.9354
2574.5034,99.9312
2575.4675,99.9278
2576.4319,99.9266
2577.3960,99.9276
2578.3604,99.93
2579.3245,99.9324
2580.2888,99.9334
2581.2529,99.9326
2582.2173,99.9302
2583.1814,99.9269
2584.1458,99.9233
2585.1099,99.9196
2586.0742,99.916
2587.0383,99.9128
2588.0027,99.9103
2588.9668,99.9091
2589.9312,99.9098
2590.8953,99.9119
2591.8596,99.9148
2592.8237,99.9178
2593.7881,99.9203
2594.7522,99.9224
2595.7166,99.9244
2596.6807,99.9266
2597.6450,99.9293
2598.6091,99.9326
2599.5735,99.9366
2600.5376,99.9407
2601.5020,99.9444
2602.4661,99.9468
2603.4304,99.9472
2604.3945,99.9456
2605.3589,99.9424
2606.3230,99.9385
2607.2874,99.935
2608.2515,99.9327
2609.2158,99.9319
2610.1799,99.9325
2611.1443,99.934
2612.1084,99.9357
2613.0728,99.937
2614.0369,99.9375
2615.0012,99.9374
2615.9653,99.9376
2616.9297,99.939
2617.8938,99.9418
2618.8582,99.9456
2619.8223,99.9497
2620.7866,99.9531
2621.7507,99.9552
2622.7151,99.9556
2623.6792,99.9541
2624.6436,99.9502
2625.6077,99.9439
2626.5720,99.936
2627.5361,99.9282
2628.5005,99.9224
2629.4646,99.92
2630.4290,99.9208
2631.3931,99.9237
2632.3574,99.9273
2633.3215,99.9305
2634.2859,99.9332
2635.2500,99.936
2636.2144,99.9391
2637.1785,99.9426
2638.1428,99.9461
2639.1069,99.9492
2640.0713,99.9515
2641.0354,99.9526
2641.9998,99.9521
2642.9639,99.9495
2643.9282,99.9449
2644.8923,99.9394
2645.8567,99.9347
2646.8208,99.9322
2647.7852,99.9326
2648.7493,99.9349
2649.7136,99.9375
2650.6777,99.9386
2651.6421,99.9373
2652.6062,99.9336
2653.5706,99.9285
2654.5347,99.9232
2655.4990,99.9189
2656.4631,99.9163
2657.4275,99.9162
2658.3916,99.9189
2659.3560,99.9244
2660.3201,99.9314
2661.2844,99.9383
2662.2485,99.9427
2663.2129,99.9431
2664.1770,99.9393
2665.1414,99.9334
2666.1055,99.9284
2667.0698,99.9275
2668.0339,99.9319
2668.9983,99.9402
2669.9624,99.9488
2670.9268,99.9534
2671.8909,99.9518
2672.8552,99.9446
2673.8193,99.9351
2674.7837,99.9275
2675.7478,99.9245
2676.7122,99.9262
2677.6763,99.9303
2678.6406,99.9339
2679.6047,99.9351
2680.5691,99.9338
2681.5332,99.9308
2682.4976,99.9273
2683.4617,99.9238
2684.4260,99.9204
2685.3901,99.9174
2686.3545,99.9154
2687.3186,99.9147
2688.2830,99.9148
2689.2471,99.9142
2690.2114,99.9113
2691.1755,99.9059
2692.1399,99.8995
2693.1040,99.8943
2694.0684,99.8921
2695.0325,99.8927
2695.9968,99.8945
2696.9609,99.8952
2697.9253,99.8941
2698.8894,99.8919
2699.8538,99.8904
2700.8179,99.8905
2701.7822,99.8914
2702.7463,99.8909
2703.7107,99.887
2704.6748,99.8787
2705.6392,99.8672
2706.6033,99.855
2707.5676,99.8449
2708.5317,99.8386
2709.4961,99.8367
2710.4602,99.8388
2711.4246,99.8433
2712.3887,99.8491
2713.3530,99.8547
2714.3171,99.8594
2715.2815,99.8632
2716.2456,99.8663
2717.2100,99.8691
2718.1741,99.8715
2719.1384,99.8734
2720.1025,99.8743
2721.0669,99.8736
2722.0310,99.8707
2722.9954,99.8653
2723.9595,99.8572
2724.9238,99.8474
2725.8879,99.8373
2726.8523,99.8294
2727.8164,99.8258
2728.7808,99.8276
2729.7449,99.8338
2730.7092,99.842
2731.6733,99.8491
2732.6377,99.8529
2733.6018,99.8526
2734.5662,99.8496
2735.5303,99.8457
2736.4946,99.8427
2737.4587,99.8413
2738.4231,99.8413
2739.3872,99.8422
2740.3516,99.8437
2741.3157,99.8461
2742.2800,99.8503
2743.2441,99.8569
2744.2085,99.8655
2745.1726,99.8747
2746.1370,99.8823
2747.1011,99.8864
2748.0654,99.8864
2749.0295,99.8836
2749.9939,99.8806
2750.9580,99.8798
2751.9224,99.8822
2752.8865,99.8867
2753.8508,99.8911
2754.8149,99.893
2755.7793,99.8918
2756.7434,99.8885
2757.7078,99.8859
2758.6719,99.8864
2759.6362,99.8906
2760.6003,99.8972
2761.5647,99.9033
2762.5288,99.9062
2763.4932,99.9049
2764.4573,99.9007
2765.4216,99.8967
2766.3857,99.896
2767.3501,99.9
2768.3142,99.9075
2769.2786,99.9154
2770.2427,99.9201
2771.2070,99.9196
2772.1711,99.9139
2773.1355,99.905
2774.0996,99.8958
2775.0640,99.888
2776.0281,99.8827
2776.9924,99.8802
2777.9565,99.8807
2778.9209,99.8841
2779.8850,99.8899
2780.8494,99.8967
2781.8135,99.902
2782.7778,99.9039
2783.7419,99.9018
2784.7063,99.8966
2785.6704,99.8904
2786.6348,99.8844
2787.5989,99.8785
2788.5632,99.8716
2789.5273,99.8623
2790.4917,99.8512
2791.4558,99.8407
2792.4202,99.8339
2793.3843,99.8327
2794.3486,99.8366
2795.3127,99.8423
2796.2771,99.8451
2797.2412,99.8418
2798.2056,99.8315
2799.1697,99.8165
2800.1340,99.8003
2801.0981,99.7861
2802.0625,99.7755
2803.0266,99.7683
2803.9910,99.7631
2804.9551,99.7586
2805.9194,99.7536
2806.8835,99.7471
2807.8479,99.7379
2808.8120,99.7245
2809.7764,99.7062
2810.7405,99.6832
2811.7048,99.6566
2812.6689,99.621
2813.6333,99.5871
2814.5974,99.5551
2815.5618,99.5236
2816.5259,99.4905
2817.4902,99.4541
2818.4543,99.4133
2819.4187,99.3676
2820.3828,99.316
2821.3472,99.2576
2822.3113,99.1914
2823.2756,99.1177
2824.2397,99.0378
2825.2041,98.9536
2826.1682,98.8665
2827.1326,98.7764
2828.0967,98.6828
2829.0610,98.5852
2830.0251,98.4846
2830.9895,98.3837
2831.9536,98.2862
2832.9180,98.196
2833.8821,98.1158
2834.8464,98.0477
2835.8105,97.9933
2836.7749,97.9541
2837.7390,97.9317
2838.7034,97.9276
2839.6675,97.943
2840.6318,97.9782
2841.5959,98.0331
2842.5603,98.1069
2843.5244,98.1989
2844.4888,98.3078
2845.4529,98.4321
2846.4172,98.5687
2847.3813,98.7129
2848.3457,98.8576
2849.3098,98.9945
2850.2742,99.1158
2851.2383,99.2159
2852.2026,99.2933
2853.1667,99.3492
2854.1311,99.3872
2855.0952,99.411
2856.0596,99.424
2857.0237,99.4294
2857.9880,99.4312
2858.9521,99.4338
2859.9165,99.441
2860.8806,99.454
2861.8450,99.4719
2862.8091,99.4916
2863.7734,99.5103
2864.7375,99.5271
2865.7019,99.5434
2866.6660,99.5611
2867.6304,99.581
2868.5945,99.6011
2869.5588,99.6166
2870.5229,99.6224
2871.4873,99.6156
2872.4514,99.5977
2873.4158,99.575
2874.3799,99.5564
2875.3442,99.5503
2876.3083,99.5616
2877.2727,99.5906
2878.2368,99.6329
2879.2012,99.6814
2880.1653,99.728
2881.1296,99.7656
2882.0938,99.7898
2883.0581,99.7995
2884.0222,99.7975
2884.9866,99.7886
2885.9507,99.7784
2886.9150,99.7716
2887.8792,99.7704
2888.8435,99.7748
2889.8076,99.7825
2890.7720,99.7889
2891.7361,99.7884
2892.7004,99.7778
2893.6646,99.7596
2894.6289,99.7439
2895.5930,99.7458
2896.5574,99.7777
2897.5215,99.84
2898.4858,99.9173
2899.4500,99.9821
2900.4143,100.007
2901.3784,99.9789
2902.3428,99.9044
2903.3069,99.8071
2904.2712,99.7148
2905.2354,99.6483
2906.1997,99.615
2907.1638,99.611
2908.1282,99.626
2909.0923,99.6485
2910.0566,99.6691
2911.0208,99.6819
2911.9851,99.6847
2912.9492,99.6788
2913.9136,99.6687
2914.8777,99.6592
2915.8420,99.6531
2916.8062,99.6493
2917.7705,99.6431
2918.7346,99.6285
2919.6990,99.6001
2920.6631,99.5544
2921.6274,99.4906
2922.5916,99.4095
2923.5559,99.3132
2924.5200,99.2034
2925.4844,99.0814
2926.4485,98.9467
2927.4128,98.7987
2928.3770,98.6376
2929.3413,98.4672
2930.3054,98.295
2931.2698,98.1307
2932.2339,97.9827
2933.1982,97.856
2934.1624,97.751
2935.1267,97.6652
2936.0908,97.5967
2937.0552,97.5455
2938.0193,97.514
2938.9836,97.5053
2939.9478,97.5201
2940.9121,97.556
2941.8762,97.6076
2942.8406,97.6685
2943.8047,97.7339
2944.7690,97.8017
2945.7332,97.8726
2946.6975,97.949
2947.6616,98.0328
2948.6260,98.1245
2949.5901,98.2226
2950.5544,98.3243
2951.5186,98.4265
2952.4829,98.526
2953.4470,98.6204
2954.4114,98.7079
2955.3755,98.788
2956.3398,98.8607
2957.3040,98.9268
2958.2683,98.9868
2959.2324,99.0411
2960.1968,99.0901
2961.1609,99.1352
2962.1252,99.1783
2963.0894,99.2222
2964.0537,99.2687
2965.0178,99.3187
2965.9822,99.3714
2966.9463,99.4254
2967.9106,99.4787
2968.8748,99.5293
2969.8391,99.5744
2970.8032,99.6106
2971.7676,99.6352
2972.7317,99.648
2973.6960,99.653
2974.6602,99.6567
2975.6245,99.6659
2976.5886,99.6838
2977.5530,99.7087
2978.5171,99.7353
2979.4814,99.7583
2980.4456,99.7767
2981.4099,99.7954
2982.3740,99.8243
2983.3384,99.8732
2984.3025,99.9457
2985.2668,100.034
2986.2310,100.118
2987.1953,100.17
2988.1594,100.166
2989.1238,100.097
2990.0879,99.9743
2991.0522,99.8302
2992.0164,99.6924
2992.9807,99.584
2993.9448,99.5109
2994.9092,99.4634
2995.8733,99.4243
2996.8376,99.3792
2997.8018,99.3227
2998.7661,99.2586
2999.7302,99.1939
3000.6946,99.1334
3001.6587,99.0768
3002.6230,99.0206
3003.5872,98.9614
3004.5515,98.899
3005.5156,98.8368
3006.4800,98.7796
3007.4441,98.7314
3008.4084,98.6928
3009.3726,98.6612
3010.3369,98.6321
3011.3010,98.6007
3012.2654,98.5637
3013.2295,98.5193
3014.1938,98.4675
3015.1580,98.4093
3016.1223,98.3469
3017.0864,98.2833
3018.0508,98.2225
3019.0149,98.1676
3019.9792,98.1203
3020.9434,98.0791
3021.9077,98.0409
3022.8718,98.0022
3023.8362,97.9617
3024.8003,97.9212
3025.7646,97.8845
3026.7288,97.8556
3027.6931,97.8355
3028.6572,97.8217
3029.6216,97.8085
3030.5857,97.7899
3031.5500,97.7622
3032.5142,97.7257
3033.4785,97.6846
3034.4426,97.6443
3035.4070,97.6095
3036.3711,97.5817
3037.3354,97.5599
3038.2996,97.5412
3039.2639,97.5231
3040.2280,97.504
3041.1924,97.484
3042.1565,97.4639
3043.1208,97.4441
3044.0850,97.4247
3045.0493,97.4052
3046.0134,97.3857
3046.9778,97.3673
3047.9419,97.3519
3048.9063,97.3412
3049.8704,97.3354
3050.8347,97.3324
3051.7988,97.3285
3052.7632,97.32
3053.7273,97.305
3054.6917,97.2847
3055.6558,97.2624
3056.6201,97.2421
3057.5842,97.2262
3058.5486,97.2154
3059.5127,97.2085
3060.4771,97.2043
3061.4412,97.2014
3062.4055,97.1986
3063.3696,97.1945
3064.3340,97.1877
3065.2981,97.1776
3066.2625,97.165
3067.2266,97.152
3068.1909,97.1402
3069.1550,97.1298
3070.1194,97.1197
3071.0835,97.1085
3072.0479,97.0964
3073.0120,97.0858
3073.9763,97.0799
3074.9404,97.0809
3075.9048,97.0878
3076.8689,97.0965
3077.8333,97.1027
3078.7974,97.1037
3079.7617,97.1
3080.7258,97.0947
3081.6902,97.0907
3082.6543,97.089
3083.6187,97.0884
3084.5828,97.0872
3085.5471,97.0844
3086.5112,97.0807
3087.4756,97.0769
3088.4397,97.0734
3089.4041,97.0693
3090.3682,97.064
3091.3325,97.0573
3092.2966,97.0506
3093.2610,97.0451
3094.2251,97.0411
3095.1895,97.0375
3096.1536,97.0333
3097.1179,97.0285
3098.0820,97.0249
3099.0464,97.0239
3100.0105,97.0252
3100.9749,97.0256
3101.9390,97.0205
3102.9033,97.0074
3103.8674,96.9869
3104.8318,96.9628
3105.7959,96.9398
3106.7603,96.9205
3107.7244,96.9051
3108.6887,96.8927
3109.6528,96.8825
3110.6172,96.8754
3111.5813,96.8725
3112.5457,96.8738
3113.5098,96.8777
3114.4741,96.8812
3115.4382,96.8822
3116.4026,96.8805
3117.3667,96.8772
3118.3311,96.8738
3119.2952,96.8702
3120.2595,96.8652
3121.2236,96.8572
3122.1880,96.8457
3123.1521,96.8315
3124.1165,96.8162
3125.0806,96.8008
3126.0449,96.7855
3127.0090,96.7708
3127.9734,96.7583
3128.9375,96.7505
3129.9019,96.7499
3130.8660,96.7563
3131.8303,96.7662
3132.7944,96.7737
3133.7588,96.7732
3134.7229,96.7624
3135.6873,96.7433
3136.6514,96.721
3137.6157,96.7009
3138.5798,96.6862
3139.5442,96.6774
3140.5083,96.6722
3141.4727,96.6679
3142.4368,96.662
3143.4011,96.6542
3144.3652,96.6459
3145.3296,96.6398
3146.2937,96.6384
3147.2581,96.6419
3148.2222,96.6477
3149.1865,96.6506
3150.1506,96.6455
3151.1150,96.63
3152.0791,96.6058
3153.0435,96.5784
3154.0076,96.5537
3154.9719,96.5356
3155.9360,96.5243
3156.9004,96.5167
3157.8645,96.5088
3158.8289,96.4972
3159.7930,96.4818
3160.7573,96.4652
3161.7214,96.4519
3162.6858,96.4459
3163.6499,96.448
3164.6143,96.4556
3165.5784,96.4631
3166.5427,96.4651
3167.5068,96.4591
3168.4712,96.4465
3169.4353,96.3612
3170.3997,96.3486
3171.3638,96.3407
3172.3281,96.3364
3173.2922,96.3336
3174.2566,96.3302
3175.2207,96.3254
3176.1851,96.3183
3177.1492,96.3085
3178.1135,96.2956
3179.0776,96.2805
3180.0420,96.2655
3181.0061,96.2532
3181.9705,96.2444
3182.9346,96.238
3183.8989,96.2317
3184.8630,96.224
3185.8274,96.2154
3186.7915,96.2077
3187.7559,96.2018
3188.7200,96.196
3189.6843,96.187
3190.6484,96.1719
3191.6128,96.1508
3192.5769,96.1268
3193.5413,96.1039
3194.5054,96.0849
3195.4697,96.0697
3196.4338,96.0571
3197.3982,96.0464
3198.3623,96.0392
3199.3267,96.0378
3200.2908,96.0436
3201.2551,96.0539
3202.2192,96.0632
3203.1836,96.0647
3204.1477,96.0543
3205.1121,96.0325
3206.0762,96.0048
3207.0405,95.9788
3208.0046,95.961
3208.9690,95.9535
3209.9331,95.9534
3210.8975,95.9548
3211.8616,95.9522
3212.8259,95.9439
3213.7900,95.9328
3214.7544,95.9239
3215.7185,95.9213
3216.6829,95.9249
3217.6470,95.9306
3218.6113,95.9326
3219.5754,95.9268
3220.5398,95.9126
3221.5039,95.8927
3222.4683,95.8711
3223.4324,95.8511
3224.3967,95.8349
3225.3608,95.8238
3226.3252,95.8191
3227.2893,95.821
3228.2537,95.8284
3229.2178,95.8379
3230.1821,95.8451
3231.1462,95.8462
3232.1106,95.8394
3233.0747,95.8252
3234.0391,95.8053
3235.0032,95.7817
3235.9675,95.756
3236.9316,95.7307
3237.8960,95.7088
3238.8601,95.6934
3239.8245,95.6862
3240.7886,95.6862
3241.7529,95.6896
3242.7170,95.6917
3243.6814,95.6893
3244.6455,95.6815
3245.6099,95.6696
3246.5740,95.6554
3247.5383,95.639
3248.5024,95.62
3249.4668,95.5984
3250.4309,95.5768
3251.3953,95.5599
3252.3594,95.5518
3253.3237,95.5531
3254.2878,95.5593
3255.2522,95.563
3256.2163,95.5574
3257.1807,95.5401
3258.1448,95.5135
3259.1091,95.4832
3260.0732,95.4546
3261.0376,95.4312
3262.0017,95.4142
3262.9661,95.4033
3263.9302,95.3974
3264.8945,95.3947
3265.8586,95.3929
3266.8230,95.389
3267.7871,95.3812
3268.7515,95.3701
3269.7156,95.3587
3270.6799,95.3506
3271.6440,95.3478
3272.6084,95.3487
3273.5725,95.3486
3274.5369,95.3426
3275.5010,95.3282
3276.4653,95.3074
3277.4294,95.2859
3278.3938,95.27
3279.3579,95.2637
3280.3223,95.267
3281.2864,95.2757
3282.2507,95.284
3283.2148,95.2868
3284.1792,95.2821
3285.1433,95.271
3286.1077,95.2564
3287.0718,95.2403
3288.0361,95.2233
3289.0002,95.2051
3289.9646,95.1855
3290.9287,95.166
3291.8931,95.1488
3292.8572,95.1345
3293.8215,95.1217
3294.7856,95.1074
3295.7500,95.09
3296.7141,95.0711
3297.6785,95.0562
3298.6426,95.051
3299.6069,95.0579
3300.5710,95.0741
3301.5354,95.0929
3302.4995,95.1079
3303.4639,95.1162
3304.4280,95.1183
3305.3923,95.116
3306.3564,95.1094
3307.3208,95.0967
3308.2849,95.0769
3309.2493,95.0519
3310.2134,95.0277
3311.1777,95.0104
3312.1418,95.0026
3313.1062,95.0008
3314.0703,94.9982
3315.0347,94.9885
3315.9988,94.9705
3316.9631,94.9484
3317.9272,94.9287
3318.8916,94.9167
3319.8557,94.913
3320.8201,94.9148
3321.7842,94.9173
3322.7485,94.917
3323.7126,94.9125
3324.6770,94.9045
3325.6411,94.8945
3326.6055,94.8837
3327.5696,94.8717
3328.5339,94.8578
3329.4980,94.8407
3330.4624,94.8205
3331.4265,94.7989
3332.3909,94.7796
3333.3550,94.7673
3334.3193,94.7656
3335.2834,94.776
3336.2478,94.7971
3337.2119,94.8246
3338.1763,94.8524
3339.1404,94.8738
3340.1047,94.8833
3341.0688,94.8788
3342.0332,94.8626
3342.9973,94.8409
3343.9617,94.8214
3344.9258,94.81
3345.8901,94.8075
3346.8542,94.8103
3347.8186,94.8124
3348.7827,94.8086
3349.7471,94.7968
3350.7112,94.7778
3351.6755,94.7543
3352.6396,94.7297
3353.6040,94.7078
3354.5681,94.6919
3355.5325,94.6841
3356.4966,94.684
3357.4609,94.6885
3358.4250,94.6926
3359.3894,94.6922
3360.3535,94.6862
3361.3179,94.6773
3362.2820,94.6695
3363.2463,94.6662
3364.2104,94.6676
3365.1748,94.6713
3366.1389,94.673
3367.1033,94.6698
3368.0674,94.6607
3369.0317,94.6479
3369.9958,94.6361
3370.9602,94.6307
3371.9243,94.636
3372.8887,94.6529
3373.8528,94.6777
3374.8171,94.702
3375.7813,94.716
3376.7456,94.7124
3377.7097,94.6894
3378.6741,94.6517
3379.6382,94.6086
3380.6025,94.5701
3381.5667,94.5438
3382.5310,94.5329
3383.4951,94.5357
3384.4595,94.5474
3385.4236,94.5614
3386.3879,94.5728
3387.3521,94.5796
3388.3164,94.5833
3389.2805,94.5866
3390.2449,94.5912
3391.2090,94.5951
3392.1733,94.5938
3393.1375,94.583
3394.1018,94.5626
3395.0659,94.5375
3396.0303,94.5161
3396.9944,94.5048
3397.9587,94.5054
3398.9229,94.5134
3399.8872,94.5219
3400.8513,94.5257
3401.8157,94.5242
3402.7798,94.5206
3403.7441,94.519
3404.7083,94.5202
3405.6726,94.522
3406.6367,94.5207
3407.6011,94.5141
3408.5652,94.5031
3409.5295,94.4906
3410.4937,94.4789
3411.4580,94.4681
3412.4221,94.4559
3413.3865,94.4398
3414.3506,94.4197
3415.3149,94.3986
3416.2791,94.3824
3417.2434,94.3768
3418.2075,94.3845
3419.1719,94.4034
3420.1360,94.4273
3421.1003,94.4489
3422.0645,94.4631
3423.0288,94.4688
3423.9929,94.4682
3424.9573,94.4647
3425.9214,94.4608
3426.8857,94.4576
3427.8499,94.4546
3428.8142,94.4508
3429.7783,94.4465
3430.7427,94.4439
3431.7068,94.4456
3432.6711,94.4529
3433.6353,94.4643
3434.5996,94.4755
3435.5637,94.4826
3436.5281,94.4843
3437.4922,94.4823
3438.4565,94.4797
3439.4207,94.4778
3440.3850,94.4746
3441.3491,94.4667
3442.3135,94.4534
3443.2776,94.4395
3444.2419,94.4343
3445.2061,94.4463
3446.1704,94.4763
3447.1345,94.5153
3448.0989,94.5499
3449.0630,94.5706
3450.0273,94.5764
3450.9915,94.5742
3451.9558,94.5738
3452.9199,94.582
3453.8843,94.5989
3454.8484,94.6189
3455.8127,94.6349
3456.7769,94.6438
3457.7412,94.6475
3458.7053,94.6506
3459.6697,94.6564
3460.6338,94.6651
3461.5981,94.6741
3462.5623,94.6816
3463.5266,94.6891
3464.4907,94.7006
3465.4551,94.7195
3466.4192,94.7449
3467.3835,94.7705
3468.3477,94.7883
3469.3120,94.793
3470.2761,94.7862
3471.2405,94.775
3472.2046,94.7685
3473.1689,94.772
3474.1331,94.7842
3475.0974,94.799
3476.0615,94.8106
3477.0259,94.818
3477.9900,94.826
3478.9543,94.841
3479.9185,94.8663
3480.8828,94.8982
3481.8469,94.9281
3482.8113,94.9488
3483.7754,94.9586
3484.7397,94.9616
3485.7039,94.9642
3486.6682,94.9712
3487.6323,94.9825
3488.5967,94.9941
3489.5608,95.0012
3490.5251,95.002
3491.4893,95.0002
3492.4536,95.0037
3493.4177,95.0201
3494.3821,95.0516
3495.3462,95.0914
3496.3105,95.1266
3497.2747,95.1467
3498.2390,95.1505
3499.2031,95.1486
3500.1675,95.1568
3501.1316,95.1859
3502.0959,95.2308
3503.0601,95.2734
3504.0244,95.2967
3504.9885,95.297
3505.9529,95.2846
3506.9170,95.2762
3507.8813,95.2858
3508.8455,95.3168
3509.8098,95.3599
3510.7739,95.3998
3511.7383,95.4264
3512.7024,95.4389
3513.6667,95.4432
3514.6309,95.447
3515.5952,95.4554
3516.5593,95.4697
3517.5237,95.4885
3518.4878,95.5101
3519.4521,95.5348
3520.4163,95.5649
3521.3806,95.6028
3522.3447,95.6494
3523.3091,95.704
3524.2732,95.766
3525.2375,95.8339
3526.2017,95.904
3527.1660,95.9678
3528.1301,96.0149
3529.0945,96.0387
3530.0586,96.042
3531.0229,96.035
3531.9871,96.0312
3532.9514,96.0428
3533.9155,96.0765
3534.8799,96.131
3535.8440,96.1959
3536.8083,96.2568
3537.7725,96.3027
3538.7368,96.3301
3539.7009,96.3429
3540.6653,96.3521
3541.6294,96.3755
3542.5938,96.4328
3543.5579,96.5333
3544.5222,96.6621
3545.4863,96.7842
3546.4507,96.8676
3547.4148,96.9039
3548.3792,96.9072
3549.3433,96.9021
3550.3076,96.9146
3551.2717,96.9621
3552.2361,97.0432
3553.2002,97.1392
3554.1646,97.2265
3555.1287,97.2917
3556.0930,97.3366
3557.0571,97.3737
3558.0215,97.4157
3558.9856,97.4633
3559.9500,97.5011
3560.9141,97.5085
3561.8784,97.4787
3562.8425,97.434
3563.8069,97.4274
3564.7710,97.515
3565.7354,97.6968
3566.6995,97.8865
3567.6638,97.9937
3568.6279,98.0138
3569.5923,97.9903
3570.5564,97.9502
3571.5208,97.9034
3572.4849,97.8636
3573.4492,97.8503
3574.4133,97.8768
3575.3777,97.942
3576.3418,98.0319
3577.3062,98.1268
3578.2703,98.207
3579.2346,98.2527
3580.1987,98.2464
3581.1631,98.1795
3582.1272,98.0608
3583.0916,97.9248
3584.0557,97.8346
3585.0200,97.8602
3585.9841,98.0194
3586.9485,98.2302
3587.9126,98.371
3588.8770,98.3974
3589.8411,98.3441
3590.8054,98.26
3591.7695,98.1857
3592.7339,98.155
3593.6980,98.1822
3594.6624,98.2496
3595.6265,98.3235
3596.5908,98.3857
3597.5549,98.4437
3598.5193,98.5129
3599.4834,98.593
3600.4478,98.66
3601.4119,98.6816
3602.3762,98.6412
3603.3403,98.5487
3604.3047,98.4372
3605.2688,98.3529
3606.2332,98.3317
3607.1973,98.3747
3608.1616,98.4476
3609.1257,98.5152
3610.0901,98.5681
3611.0542,98.6136
3612.0186,98.6506
3612.9829,98.6633
3613.9470,98.6345
3614.9114,98.5674
3615.8755,98.497
3616.8398,98.4785
3617.8040,98.5514
3618.7683,98.6989
3619.7324,98.853
3620.6968,98.9502
3621.6609,98.9603
3622.6252,98.868
3623.5894,98.6706
3624.5537,98.4072
3625.5178,98.1851
3626.4822,98.1577
3627.4463,98.4044
3628.4106,98.7866
3629.3748,99.0598
3630.3391,99.1513
3631.3032,99.1358
3632.2676,99.078
3633.2317,99.0085
3634.1960,98.9519
3635.1602,98.9314
3636.1245,98.9585
3637.0886,99.0288
3638.0530,99.1272
3639.0171,99.2342
3639.9814,99.3263
3640.9456,99.3753
3641.9099,99.352
3642.8740,99.2398
3643.8384,99.0554
3644.8025,98.8749
3645.7668,98.8559
3646.7310,99.1953
3647.6953,99.9078
3648.6594,100.561
3649.6238,100.684
3650.5879,100.4
3651.5522,100.042
3652.5164,99.7394
3653.4807,99.5087
3654.4448,99.3757
3655.4092,99.3774
3656.3733,99.5116
3657.3376,99.7197
3658.3018,99.9278
3659.2661,100.09
3660.2302,100.195
3661.1946,100.251
3662.1587,100.261
3663.1230,100.216
3664.0872,100.098
3665.0515,99.9171
3666.0156,99.7302
3666.9800,99.6395
3667.9441,99.7268
3668.9084,99.9445
3669.8726,100.111
3670.8369,100.088
3671.8010,99.9119
3672.7654,99.7299
3673.7295,99.7058
3674.6938,99.9062
3675.6580,100.213
3676.6223,100.435
3677.5864,100.512
3678.5508,100.488
3679.5149,100.407
3680.4792,100.295
3681.4434,100.161
3682.4077,100.003
3683.3718,99.8061
3684.3362,99.5724
3685.3003,99.3485
3686.2646,99.2437
3687.2288,99.3854
3688.1931,99.7869
3689.1572,100.245
3690.1216,100.508
3691.0857,100.527
3692.0500,100.4
3693.0142,100.21
3693.9785,99.9977
3694.9426,99.7835
3695.9070,99.5731
3696.8711,99.3847
3697.8354,99.2469
3698.7996,99.1975
3699.7639,99.2651
3700.7280,99.4362
3701.6924,99.6404
3702.6565,99.7848
3703.6208,99.8096
3704.5850,99.7047
3705.5493,99.4968
3706.5134,99.2443
3707.4778,99.0415
3708.4419,99.0035
3709.4063,99.1941
3710.3704,99.525
3711.3347,99.7957
3712.2988,99.9031
3713.2632,99.8941
3714.2273,99.8302
3715.1917,99.73
3716.1558,99.6015
3717.1201,99.472
3718.0842,99.3873
3719.0486,99.3887
3720.0127,99.4912
3720.9771,99.6771
3721.9412,99.91
3722.9055,100.149
3723.8696,100.351
3724.8340,100.473
3725.7981,100.489
3726.7625,100.395
3727.7266,100.205
3728.6909,99.9478
3729.6550,99.669
3730.6194,99.4502
3731.5835,99.41
3732.5479,99.6668
3733.5120,100.231
3734.4763,100.89
3735.4404,101.325
3736.4048,101.414
3737.3689,101.256
3738.3333,100.95
3739.2974,100.529
3740.2617,100.026
3741.2258,99.5362
3742.1902,99.219
3743.1543,99.1995
3744.1187,99.4248
3745.0828,99.6874
3746.0471,99.8329
3747.0112,99.8591
3747.9756,99.8625
3748.9397,99.9521
3749.9041,100.125
3750.8682,100.223
3751.8325,100.136
3752.7966,99.9404
3753.7610,99.7271
3754.7251,99.5235
3755.6895,99.351
3756.6536,99.2544
3757.6179,99.2668
3758.5820,99.3621
3759.5464,99.4663
3760.5105,99.5164
3761.4749,99.4927
3762.4390,99.4105
3763.4033,99.3033
3764.3674,99.2099
3765.3318,99.1605
3766.2959,99.1681
3767.2603,99.2281
3768.2244,99.3226
3769.1887,99.4241
3770.1528,99.5018
3771.1172,99.5316
3772.0813,99.5018
3773.0457,99.4118
3774.0098,99.2743
3774.9741,99.1241
3775.9382,99.0189
3776.9026,99.0157
3777.8667,99.1267
3778.8311,99.2983
3779.7952,99.4495
3780.7595,99.5321
3781.7236,99.5474
3782.6880,99.5225
3783.6521,99.4857
3784.6165,99.4529
3785.5806,99.4265
3786.5449,99.4018
3787.5090,99.3743
3788.4734,99.3412
3789.4375,99.3007
3790.4019,99.2539
3791.3660,99.2112
3792.3303,99.1936
3793.2944,99.2236
3794.2588,99.3052
3795.2229,99.4105
3796.1873,99.493
3797.1514,99.5229
3798.1157,99.513
3799.0798,99.5028
3800.0442,99.5086
3801.0083,99.4922
3801.9727,99.4048
3802.9368,99.2507
3803.9011,99.0825
3804.8652,98.9667
3805.8296,98.96
3806.7937,99.0762
3807.7581,99.2648
3808.7222,99.4384
3809.6865,99.5227
3810.6506,99.484
3811.6150,99.3442
3812.5791,99.1808
3813.5435,99.0936
3814.5076,99.1325
3815.4719,99.2476
3816.4360,99.3398
3817.4004,99.3612
3818.3645,99.3429
3819.3289,99.3408
3820.2930,99.3727
3821.2573,99.4113
3822.2214,99.4334
3823.1858,99.4407
3824.1499,99.4378
3825.1143,99.4266
3826.0784,99.4156
3827.0427,99.4193
3828.0068,99.4472
3828.9712,99.4956
3829.9353,99.5464
3830.8997,99.5722
3831.8638,99.5449
3832.8281,99.4489
3833.7922,99.2963
3834.7566,99.134
3835.7207,99.031
3836.6851,99.0412
3837.6492,99.1615
3838.6135,99.3329
3839.5776,99.4946
3840.5420,99.6259
3841.5061,99.735
3842.4705,99.8312
3843.4346,99.9109
3844.3989,99.9544
3845.3630,99.9295
3846.3274,99.7985
3847.2915,99.5309
3848.2559,99.1283
3849.2200,98.6602
3850.1843,98.3001
3851.1484,98.3062
3852.1128,98.8147
3853.0769,99.522
3854.0413,99.9478
3855.0054,100.045
3855.9697,99.9957
3856.9338,99.8708
3857.8982,99.6715
3858.8623,99.4211
3859.8267,99.1911
3860.7908,99.0768
3861.7551,99.137
3862.7192,99.3328
3863.6836,99.5369
3864.6477,99.6298
3865.6121,99.5803
3866.5762,99.4393
3867.5405,99.2955
3868.5046,99.2342
3869.4690,99.2972
3870.4331,99.4573
3871.3975,99.6365
3872.3616,99.7598
3873.3259,99.7917
3874.2900,99.7326
3875.2544,99.6041
3876.2185,99.4441
3877.1829,99.3056
3878.1470,99.2449
3879.1113,99.2922
3880.0754,99.4252
3881.0398,99.5779
3882.0039,99.6871
3882.9683,99.7274
3883.9324,99.7056
3884.8967,99.6373
3885.8608,99.5349
3886.8252,99.4119
3887.7893,99.292
3888.7537,99.2174
3889.7178,99.2423
3890.6821,99.3934
3891.6462,99.6219
3892.6106,99.8215
3893.5747,99.9053
3894.5391,99.8484
3895.5032,99.6773
3896.4675,99.453
3897.4316,99.2538
3898.3960,99.1437
3899.3601,99.144
3900.3245,99.2346
3901.2886,99.3821
3902.2529,99.5548
3903.2170,99.7162
3904.1814,99.8304
3905.1455,99.8815
3906.1099,99.8769
3907.0740,99.8332
3908.0383,99.7683
3909.0024,99.6998
3909.9668,99.6407
3910.9309,99.5938
3911.8953,99.5535
3912.8594,99.517
3913.8237,99.4957
3914.7878,99.5137
3915.7522,99.5889
3916.7163,99.7084
3917.6807,99.8272
3918.6448,99.8979
3919.6091,99.9018
3920.5732,99.8521
3921.5376,99.7805
3922.5017,99.7213
3923.4661,99.6939
3924.4302,99.6931
3925.3945,99.6964
3926.3586,99.6828
3927.3230,99.6488
3928.2871,99.6119
3929.2515,99.6037
3930.2156,99.6502
3931.1799,99.7497
3932.1440,99.8694
3933.1084,99.9671
3934.0725,100.014
3935.0369,99.9986
3936.0010,99.9272
3936.9653,99.8156
3937.9294,99.6899
3938.8938,99.582
3939.8579,99.5216
3940.8223,99.5247
3941.7864,99.5835
3942.7507,99.6696
3943.7148,99.75
3944.6792,99.8047
3945.6433,99.8328
3946.6077,99.8471
3947.5718,99.8621
3948.5361,99.8821
3949.5002,99.8979
3950.4646,99.8959
3951.4287,99.8685
3952.3931,99.8201
3953.3572,99.7642
3954.3215,99.7182
3955.2856,99.6964
3956.2500,99.705
3957.2141,99.7411
3958.1785,99.7967
3959.1426,99.862
3960.1069,99.9268
3961.0710,99.9797
3962.0354,100.01
3962.9995,100.011
3963.9639,99.9843
3964.9280,99.9383
3965.8923,99.8867
3966.8564,99.8425
3967.8208,99.8144
3968.7849,99.8046
3969.7493,99.8114
3970.7134,99.8317
3971.6777,99.8632
3972.6418,99.9031
3973.6062,99.9459
3974.5703,99.9822
3975.5347,100.002
3976.4988,100.001
3977.4631,99.9817
3978.4272,99.9525
3979.3916,99.9254
3980.3557,99.9087
3981.3201,99.9042
3982.2842,99.9072
3983.2485,99.9104
3984.2126,99.9088
3985.1770,99.9029
3986.1411,99.8982
3987.1055,99.9023
3988.0696,99.9201
3989.0339,99.9508
3989.9980,99.9876
3990.9624,100.02
3991.9265,100.04
3992.8909,100.043
3993.8550,100.033
3994.8193,100.019
3995.7834,100.008
3996.7478,100
3997.7119,99.9959
3998.6763,99.9915
3999.6404,99.9857
4000.6047,100.153

##### Extended Information
[Comments]
Sample name
Comment
User
Division
Company,HANKYONG

[Detailed Information]
Creation date,4/24/2024 3:22 PM

Data array type,Linear data array
Horizontal axis,Wavenumber [cm-1]
Vertical axis,%T
Start,649.893 cm-1
End,4000.6 cm-1
Data interval,0.964233 cm-1
Data points,3476    

[Measurement Information]
Model Name,FT/IR-4700typeA
Serial Number,D056761788

Accessory,ATR PRO ONE
Accessory S/N,C174761809
Incident angle,45 deg

Measurement Date,4/24/2024 3:21 PM

Light Source,Standard
Detector,TGS
Accumulation,32
Resolution,4 cm-1
Zero Filling,On
Apodization,Cosine
Gain,Auto (4)
Aperture,Auto (7.1 mm)
Scanning Speed,Auto (2 mm/sec)
Filter,Auto (30000 Hz)

