TITLE,
DATA TYPE,INFRARED SPECTRUM
ORIGIN,JASCO
OWNER,
DATE,24/04/24
TIME,15:26:20
SPECTROMETER/DATA SYSTEM,
LOCALE,1033
RESOLUTION,
DELTAX,0.964233
XUNITS,1/CM
YUNITS,TRANSMITTANCE
FIRSTX,  649.8934
LASTX, 4000.6047
NPOINTS,    3476
FIRSTY,    98.83538
MAXY,   101.39369
MINY,    84.31762
XYDATA
649.8934,98.8354
650.8576,98.9685
651.8218,99.1145
652.7861,99.2426
653.7503,99.3175
654.7145,99.3225
655.6788,99.2692
656.6430,99.1905
657.6072,99.1226
658.5715,99.0898
659.5357,99.1002
660.4999,99.1505
661.4642,99.2342
662.4284,99.3471
663.3926,99.4889
664.3569,99.6602
665.3211,99.8553
666.2853,100.047
667.2496,100.163
668.2138,100.116
669.1780,99.9202
670.1423,99.7239
671.1065,99.6271
672.0707,99.6306
673.0350,99.7002
673.9992,99.8008
674.9634,99.9017
675.9277,99.9788
676.8919,100.02
677.8561,100.026
678.8204,100.009
679.7846,99.982
680.7488,99.9567
681.7131,99.9415
682.6773,99.9411
683.6415,99.9561
684.6058,99.9834
685.5700,100.017
686.5342,100.05
687.4985,100.072
688.4627,100.074
689.4269,100.05
690.3912,100.003
691.3554,99.9487
692.3196,99.9136
693.2839,99.9218
694.2481,99.9791
695.2123,100.064
696.1766,100.139
697.1408,100.176
698.1050,100.166
699.0693,100.121
700.0335,100.063
700.9977,100.016
701.9620,99.9896
702.9262,99.9821
703.8904,99.9818
704.8547,99.9754
705.8189,99.9541
706.7831,99.9173
707.7474,99.8725
708.7116,99.832
709.6758,99.808
710.6401,99.807
711.6043,99.8265
712.5685,99.8764
713.5328,99.9357
714.4970,99.972
715.4612,100.002
716.4255,99.9791
717.3897,99.936
718.3539,99.8829
719.3182,99.8298
720.2824,99.7845
721.2466,99.7509
722.2109,99.7265
723.1751,99.703
724.1393,99.6695
725.1036,99.618
726.0678,99.5494
727.0320,99.4742
727.9963,99.4088
728.9605,99.3663
729.9247,99.3491
730.8890,99.3477
731.8532,99.3457
732.8174,99.3281
733.7817,99.2865
734.7459,99.2196
735.7101,99.1316
736.6744,99.0303
737.6386,98.9261
738.6028,98.8309
739.5671,98.7553
740.5313,98.7036
741.4955,98.6708
742.4598,98.6434
743.4240,98.6047
744.3882,98.5423
745.3525,98.452
746.3167,98.339
747.2809,98.2144
748.2452,98.0912
749.2094,97.9807
750.1736,97.8888
751.1379,97.8155
752.1021,97.7542
753.0663,97.6952
754.0306,97.6301
754.9948,97.5561
755.9590,97.4772
756.9233,97.4011
757.8875,97.3334
758.8517,97.2747
759.8160,97.2212
760.7802,97.1681
761.7444,97.1142
762.7087,97.0631
763.6729,97.0208
764.6371,96.992
765.6014,96.9778
766.5656,96.9747
767.5298,96.9766
768.4941,96.9773
769.4583,96.972
770.4225,96.9586
771.3868,96.9382
772.3510,96.914
773.3152,96.8902
774.2795,96.8699
775.2437,96.8538
776.2079,96.8401
777.1722,96.8251
778.1364,96.8047
779.1006,96.7754
780.0649,96.7352
781.0291,96.684
781.9933,96.6241
782.9576,96.5603
783.9218,96.4982
784.8860,96.4428
785.8503,96.3958
786.8145,96.3543
787.7787,96.3121
788.7430,96.2619
789.7072,96.1987
790.6714,96.1217
791.6357,96.0346
792.5999,95.945
793.5641,95.8619
794.5284,95.7933
795.4926,95.7446
796.4568,95.7164
797.4211,95.7045
798.3853,95.7002
799.3495,95.6936
800.3138,95.676
801.2780,95.6433
802.2422,95.597
803.2065,95.5435
804.1707,95.4914
805.1349,95.4484
806.0992,95.4179
807.0634,95.3976
808.0276,95.3809
808.9919,95.3602
809.9561,95.3312
810.9203,95.2957
811.8846,95.261
812.8488,95.2368
813.8130,95.2297
814.7773,95.2411
815.7415,95.2669
816.7057,95.3014
817.6700,95.3416
818.6342,95.3894
819.5984,95.4512
820.5627,95.5348
821.5269,95.6453
822.4911,95.7834
823.4554,95.9448
824.4196,96.1222
825.3839,96.3072
826.3481,96.4925
827.3123,96.6733
828.2766,96.8461
829.2408,97.0082
830.2050,97.156
831.1693,97.285
832.1335,97.3905
833.0977,97.4695
834.0620,97.5211
835.0262,97.5458
835.9904,97.5439
836.9547,97.5142
837.9189,97.4554
838.8831,97.3681
839.8474,97.2561
840.8116,97.1259
841.7758,96.9843
842.7401,96.836
843.7043,96.6837
844.6685,96.5292
845.6328,96.3755
846.5970,96.2272
847.5612,96.0882
848.5255,95.9611
849.4897,95.8472
850.4539,95.7486
851.4182,95.6696
852.3824,95.6152
853.3466,95.5875
854.3109,95.584
855.2751,95.5982
856.2393,95.6236
857.2036,95.6588
858.1678,95.7076
859.1320,95.7764
860.0963,95.8687
861.0605,95.9819
862.0247,96.1077
862.9890,96.2349
863.9532,96.3536
864.9174,96.4567
865.8817,96.5413
866.8459,96.6089
867.8101,96.6649
868.7744,96.7166
869.7386,96.7707
870.7028,96.8302
871.6671,96.8945
872.6313,96.9626
873.5955,97.0363
874.5598,97.1209
875.5240,97.2218
876.4882,97.3394
877.4525,97.4657
878.4167,97.588
879.3809,97.6953
880.3452,97.7857
881.3094,97.8668
882.2736,97.9517
883.2379,98.0518
884.2021,98.1726
885.1663,98.3149
886.1306,98.4771
887.0948,98.6564
888.0590,98.8468
889.0233,99.0371
889.9875,99.2116
890.9517,99.3557
891.9160,99.463
892.8802,99.5402
893.8444,99.6033
894.8087,99.669
895.7729,99.7459
896.7371,99.8303
897.7014,99.9103
898.6656,99.9851
899.6298,100.046
900.5941,100.081
901.5583,100.098
902.5225,100.101
903.4868,100.093
904.4510,100.076
905.4152,100.052
906.3795,100.025
907.3437,99.9997
908.3079,99.978
909.2722,99.9592
910.2364,99.939
911.2006,99.9125
912.1649,99.877
913.1291,99.8331
914.0933,99.7835
915.0576,99.7309
916.0218,99.6771
916.9860,99.6238
917.9503,99.5748
918.9145,99.5358
919.8787,99.5122
920.8430,99.5064
921.8072,99.5148
922.7714,99.5299
923.7357,99.5433
924.6999,99.5505
925.6641,99.5525
926.6284,99.5543
927.5926,99.5615
928.5568,99.5773
929.5211,99.6012
930.4853,99.63
931.4495,99.6592
932.4138,99.6843
933.3780,99.7017
934.3422,99.7092
935.3065,99.7073
936.2707,99.6992
937.2349,99.6899
938.1992,99.6841
939.1634,99.6838
940.1276,99.688
941.0919,99.6943
942.0561,99.701
943.0203,99.7086
943.9846,99.7188
944.9488,99.7322
945.9130,99.7466
946.8773,99.7576
947.8415,99.7605
948.8057,99.7538
949.7700,99.7394
950.7342,99.7216
951.6984,99.7036
952.6627,99.6854
953.6269,99.6629
954.5911,99.6312
955.5554,99.5874
956.5196,99.5331
957.4838,99.4735
958.4481,99.4144
959.4123,99.3588
960.3765,99.305
961.3408,99.2481
962.3050,99.1833
963.2692,99.1097
964.2335,99.0315
965.1977,98.9567
966.1619,98.8936
967.1262,98.8479
968.0904,98.8209
969.0546,98.81
970.0189,98.8101
970.9831,98.8148
971.9473,98.818
972.9116,98.8149
973.8758,98.8032
974.8400,98.7825
975.8043,98.7541
976.7685,98.7189
977.7327,98.6771
978.6970,98.6273
979.6612,98.5686
980.6254,98.5014
981.5897,98.4287
982.5539,98.3549
983.5181,98.2835
984.4824,98.2147
985.4466,98.1453
986.4108,98.0695
987.3751,97.9816
988.3393,97.8779
989.3035,97.7572
990.2678,97.6202
991.2320,97.4674
992.1962,97.2993
993.1605,97.1158
994.1247,96.9181
995.0889,96.7089
996.0532,96.492
997.0174,96.2708
997.9816,96.0477
998.9459,95.8231
999.9101,95.5954
1000.8743,95.3619
1001.8386,95.1179
1002.8028,94.858
1003.7670,94.5772
1004.7313,94.2727
1005.6955,93.9461
1006.6597,93.6024
1007.6240,93.248
1008.5882,92.8875
1009.5524,92.5221
1010.5167,92.15
1011.4809,91.7691
1012.4451,91.379
1013.4094,90.9821
1014.3736,90.5821
1015.3378,90.1827
1016.3021,89.7863
1017.2663,89.3946
1018.2305,89.0097
1019.1948,88.6369
1020.1590,88.2868
1021.1232,87.9748
1022.0875,87.7172
1023.0517,87.5254
1024.0160,87.3983
1024.9802,87.3196
1025.9445,87.2621
1026.9087,87.2
1027.8729,87.1241
1028.8372,87.0514
1029.8014,87.0225
1030.7656,87.0875
1031.7299,87.2878
1032.6941,87.6424
1033.6583,88.1434
1034.6226,88.7615
1035.5868,89.4569
1036.5510,90.192
1037.5153,90.9392
1038.4795,91.6818
1039.4437,92.4099
1040.4080,93.1144
1041.3722,93.7838
1042.3364,94.4046
1043.3007,94.966
1044.2649,95.4634
1045.2291,95.9003
1046.1934,96.2853
1047.1576,96.6265
1048.1218,96.9275
1049.0861,97.1879
1050.0503,97.4072
1051.0145,97.5911
1051.9788,97.7528
1052.9430,97.9093
1053.9072,98.0719
1054.8715,98.2378
1055.8357,98.3893
1056.7999,98.5021
1057.7642,98.5624
1058.7284,98.5824
1059.6926,98.6026
1060.6569,98.6775
1061.6211,98.8487
1062.5853,99.1214
1063.5496,99.4544
1064.5138,99.7717
1065.4780,99.9947
1066.4423,100.079
1067.4065,100.036
1068.3707,99.9224
1069.3350,99.8066
1070.2992,99.7368
1071.2634,99.7449
1072.2277,99.8039
1073.1919,99.8661
1074.1561,99.9031
1075.1204,99.9028
1076.0846,99.8677
1077.0488,99.8066
1078.0131,99.7262
1078.9773,99.6287
1079.9415,99.5145
1080.9058,99.3866
1081.8700,99.2524
1082.8342,99.1232
1083.7985,99.0086
1084.7627,98.9127
1085.7269,98.8311
1086.6912,98.7534
1087.6554,98.6681
1088.6196,98.5698
1089.5839,98.4625
1090.5481,98.3585
1091.5123,98.2741
1092.4766,98.2226
1093.4408,98.2104
1094.4050,98.2353
1095.3693,98.2889
1096.3335,98.3589
1097.2977,98.4315
1098.2620,98.4942
1099.2262,98.5367
1100.1904,98.5529
1101.1547,98.5418
1102.1189,98.5065
1103.0831,98.4525
1104.0474,98.3844
1105.0116,98.3039
1105.9758,98.21
1106.9401,98.1008
1107.9043,97.9764
1108.8685,97.8403
1109.8328,97.6987
1110.7970,97.5578
1111.7612,97.4207
1112.7255,97.2854
1113.6897,97.1459
1114.6539,96.9957
1115.6182,96.8315
1116.5824,96.6559
1117.5466,96.4773
1118.5109,96.3069
1119.4751,96.1564
1120.4393,96.0353
1121.4036,95.9512
1122.3678,95.9103
1123.3320,95.9174
1124.2963,95.9751
1125.2605,96.082
1126.2247,96.2313
1127.1890,96.4116
1128.1532,96.609
1129.1174,96.8102
1130.0817,97.0044
1131.0459,97.1844
1132.0101,97.3456
1132.9744,97.4843
1133.9386,97.5966
1134.9028,97.6783
1135.8671,97.7261
1136.8313,97.7387
1137.7955,97.7182
1138.7598,97.6706
1139.7240,97.6051
1140.6882,97.5314
1141.6525,97.4585
1142.6167,97.3921
1143.5809,97.3347
1144.5452,97.2855
1145.5094,97.2423
1146.4736,97.2038
1147.4379,97.1709
1148.4021,97.1474
1149.3663,97.1399
1150.3306,97.1552
1151.2948,97.1992
1152.2590,97.2751
1153.2233,97.383
1154.1875,97.5206
1155.1517,97.684
1156.1160,97.8679
1157.0802,98.0666
1158.0444,98.2736
1159.0087,98.4824
1159.9729,98.6876
1160.9371,98.8858
1161.9014,99.0755
1162.8656,99.256
1163.8298,99.4253
1164.7941,99.5788
1165.7583,99.7102
1166.7225,99.8134
1167.6868,99.8861
1168.6510,99.9313
1169.6152,99.9564
1170.5795,99.9699
1171.5437,99.9774
1172.5079,99.9795
1173.4722,99.9688
1174.4364,99.8473
1175.4006,99.708
1176.3649,99.5502
1177.3291,99.3747
1178.2933,99.1821
1179.2576,98.9713
1180.2218,98.7393
1181.1860,98.4835
1182.1503,98.2036
1183.1145,97.9029
1184.0787,97.5883
1185.0430,97.268
1186.0072,96.9494
1186.9714,96.636
1187.9357,96.3267
1188.8999,96.0166
1189.8641,95.6994
1190.8284,95.3707
1191.7926,95.0291
1192.7568,94.6766
1193.7211,94.3171
1194.6853,93.9548
1195.6495,93.5938
1196.6138,93.2386
1197.5780,92.8941
1198.5422,92.5653
1199.5065,92.2046
1200.4707,91.9239
1201.4349,91.6658
1202.3992,91.4309
1203.3634,91.2209
1204.3276,91.0397
1205.2919,90.8907
1206.2561,90.7756
1207.2203,90.6923
1208.1846,90.6369
1209.1488,90.6049
1210.1130,90.5934
1211.0773,90.6012
1212.0415,90.6277
1213.0057,90.6714
1213.9700,90.7299
1214.9342,90.7998
1215.8984,90.8781
1216.8627,90.9621
1217.8269,91.0501
1218.7911,91.1409
1219.7554,91.2337
1220.7196,91.327
1221.6838,91.4192
1222.6481,91.5074
1223.6123,91.5887
1224.5765,91.6606
1225.5408,91.7209
1226.5050,91.7686
1227.4692,91.8031
1228.4335,91.8249
1229.3977,91.835
1230.3619,91.8355
1231.3262,91.8293
1232.2904,91.8191
1233.2546,91.808
1234.2189,91.8005
1235.1831,91.8031
1236.1473,91.824
1237.1116,91.8697
1238.0758,91.9399
1239.0400,92.0242
1240.0043,92.1038
1240.9685,92.1578
1241.9327,92.1725
1242.8970,92.1475
1243.8612,92.0939
1244.8254,92.0261
1245.7897,91.9522
1246.7539,91.8691
1247.7181,91.7639
1248.6824,91.6215
1249.6466,91.4318
1250.6108,91.1941
1251.5751,90.9156
1252.5393,90.6084
1253.5035,90.2846
1254.4678,89.9541
1255.4320,89.6237
1256.3962,89.297
1257.3605,88.9757
1258.3247,88.6612
1259.2889,88.3563
1260.2532,88.0659
1261.2174,87.7968
1262.1816,87.5559
1263.1459,87.3484
1264.1101,87.1772
1265.0743,87.0435
1266.0386,86.9488
1267.0028,86.8962
1267.9670,86.8911
1268.9313,86.9392
1269.8955,87.0447
1270.8597,87.2068
1271.8240,87.4195
1272.7882,87.673
1273.7524,87.9569
1274.7167,88.2629
1275.6809,88.5859
1276.6451,88.9229
1277.6094,89.2709
1278.5736,89.6264
1279.5378,89.9848
1280.5021,90.3417
1281.4663,90.6936
1282.4305,91.0386
1283.3948,91.376
1284.3590,91.7055
1285.3232,92.0268
1286.2875,92.3389
1287.2517,92.6397
1288.2159,92.927
1289.1802,93.199
1290.1444,93.4553
1291.1086,93.6965
1292.0729,93.9239
1293.0371,94.1383
1294.0013,94.3397
1294.9656,94.5282
1295.9298,94.7045
1296.8940,94.8701
1297.8583,95.0267
1298.8225,95.175
1299.7867,95.3146
1300.7510,95.4443
1301.7152,95.5644
1302.6794,95.6768
1303.6437,95.7848
1304.6079,95.8914
1305.5721,95.9973
1306.5364,96.0998
1307.5006,96.1944
1308.4648,96.2781
1309.4291,96.3513
1310.3933,96.4178
1311.3575,96.4827
1312.3218,96.5497
1313.2860,96.619
1314.2502,96.6886
1315.2145,96.7569
1316.1787,96.8238
1317.1429,96.891
1318.1072,96.9601
1319.0714,97.0311
1320.0356,97.1023
1320.9999,97.1712
1321.9641,97.2356
1322.9283,97.2934
1323.8926,97.3427
1324.8568,97.3828
1325.8210,97.4143
1326.7853,97.4407
1327.7495,97.4668
1328.7137,97.497
1329.6780,97.5325
1330.6422,97.5705
1331.6064,97.6042
1332.5707,97.6265
1333.5349,97.6337
1334.4991,97.6281
1335.4634,97.6185
1336.4276,97.6174
1337.3918,97.6351
1338.3561,97.6717
1339.3203,97.7155
1340.2845,97.752
1341.2488,97.7739
1342.2130,97.7815
1343.1772,97.7772
1344.1415,97.7624
1345.1057,97.738
1346.0699,97.7049
1347.0342,97.6636
1347.9984,97.6154
1348.9626,97.5621
1349.9269,97.5057
1350.8911,97.448
1351.8553,97.3912
1352.8196,97.3381
1353.7838,97.2912
1354.7480,97.2508
1355.7123,97.2122
1356.6765,97.1679
1357.6407,97.1127
1358.6050,97.049
1359.5692,96.9899
1360.5334,96.9535
1361.4977,96.9505
1362.4619,96.9742
1363.4261,97.007
1364.3904,97.0352
1365.3546,97.0555
1366.3188,97.0712
1367.2831,97.0873
1368.2473,97.1074
1369.2115,97.1333
1370.1758,97.1692
1371.1400,97.2267
1372.1042,97.3241
1373.0685,97.475
1374.0327,97.6722
1374.9969,97.8851
1375.9612,98.0801
1376.9254,98.243
1377.8896,98.3807
1378.8539,98.5067
1379.8181,98.6272
1380.7823,98.735
1381.7466,98.8148
1382.7108,98.8553
1383.6750,98.8597
1384.6393,98.8471
1385.6035,98.8456
1386.5677,98.878
1387.5320,98.95
1388.4962,99.0521
1389.4604,99.1688
1390.4247,99.285
1391.3889,99.3891
1392.3531,99.4724
1393.3174,99.5292
1394.2816,99.5365
1395.2458,99.4833
1396.2101,99.3874
1397.1743,99.2887
1398.1385,99.2207
1399.1028,99.1887
1400.0670,99.1754
1401.0313,99.1568
1401.9955,99.1164
1402.9597,99.0471
1403.9240,98.9482
1404.8882,98.82
1405.8524,98.663
1406.8167,98.4794
1407.7809,98.2707
1408.7451,98.0355
1409.7094,97.7711
1410.6736,97.4787
1411.6378,97.1664
1412.6021,96.8448
1413.5663,96.5186
1414.5305,96.1844
1415.4948,95.8379
1416.4590,95.4842
1417.4232,95.1402
1418.3875,94.831
1419.3517,94.5827
1420.3159,94.4052
1421.2802,94.2794
1422.2444,94.1701
1423.2086,94.0505
1424.1729,93.9129
1425.1371,93.7658
1426.1013,93.6258
1427.0656,93.5109
1428.0298,93.4362
1428.9940,93.4079
1429.9583,93.4163
1430.9225,93.4377
1431.8867,93.4471
1432.8510,93.4338
1433.8152,93.4082
1434.7794,93.394
1435.7437,93.4046
1436.7079,93.421
1437.6721,93.4094
1438.6364,93.352
1439.6006,93.2425
1440.5648,93.0737
1441.5291,92.8427
1442.4933,92.5574
1443.4575,92.2343
1444.4218,91.8908
1445.3860,91.5407
1446.3502,91.1959
1447.3145,90.8743
1448.2787,90.6005
1449.2429,90.3935
1450.2072,90.2489
1451.1714,90.1376
1452.1356,90.0236
1453.0999,89.8888
1454.0641,89.7509
1455.0283,89.6654
1455.9926,89.6799
1456.9568,89.7436
1457.9210,89.7532
1458.8853,89.7149
1459.8495,89.6741
1460.8137,89.6334
1461.7780,89.6001
1462.7422,89.6254
1463.7064,89.7885
1464.6707,90.13
1465.6349,90.5901
1466.5991,91.0504
1467.5634,91.4309
1468.5276,91.7263
1469.4918,91.989
1470.4561,92.3081
1471.4203,92.7698
1472.3845,93.3686
1473.3488,93.9539
1474.3130,94.3705
1475.2772,94.6107
1476.2415,94.7426
1477.2057,94.8096
1478.1699,94.8215
1479.1342,94.7751
1480.0984,94.6664
1481.0626,94.4959
1482.0269,94.2692
1482.9911,93.997
1483.9553,93.6915
1484.9196,93.3646
1485.8838,93.0262
1486.8480,92.6823
1487.8123,92.3265
1488.7765,91.9447
1489.7407,91.5504
1490.7050,91.1908
1491.6692,90.8879
1492.6334,90.6168
1493.5977,90.3431
1494.5619,90.0519
1495.5261,89.7512
1496.4904,89.4563
1497.4546,89.1743
1498.4188,88.9064
1499.3831,88.6508
1500.3473,88.3929
1501.3115,88.1064
1502.2758,87.7708
1503.2400,87.3845
1504.2042,86.9667
1505.1685,86.5346
1506.1327,86.0479
1507.0969,85.4443
1508.0612,84.8669
1509.0254,84.5186
1509.9896,84.3715
1510.9539,84.3182
1511.9181,84.3176
1512.8823,84.4089
1513.8466,84.6798
1514.8108,85.2089
1515.7750,85.997
1516.7393,86.9475
1517.7035,87.9443
1518.6677,88.9615
1519.6320,90.0778
1520.5962,91.3599
1521.5604,92.7256
1522.5247,93.9764
1523.4889,94.9815
1524.4531,95.7667
1525.4174,96.4353
1526.3816,97.0545
1527.3458,97.616
1528.3101,98.0749
1529.2743,98.4101
1530.2385,98.6511
1531.2028,98.8651
1532.1670,99.1117
1533.1312,99.3856
1534.0955,99.6129
1535.0597,99.7229
1536.0239,99.7055
1536.9882,99.6097
1537.9524,99.5351
1538.9166,99.6149
1539.8809,99.9074
1540.8451,100.219
1541.8093,100.306
1542.7736,100.237
1543.7378,100.16
1544.7020,100.127
1545.6663,100.104
1546.6305,100.072
1547.5947,100.025
1548.5590,99.9633
1549.5232,99.8887
1550.4874,99.8039
1551.4517,99.7069
1552.4159,99.5919
1553.3801,99.4522
1554.3444,99.2876
1555.3086,99.1172
1556.2728,98.9896
1557.2371,98.9488
1558.2013,98.9217
1559.1655,98.7756
1560.1298,98.6021
1561.0940,98.52
1562.0582,98.4918
1563.0225,98.4437
1563.9867,98.3397
1564.9509,98.1813
1565.9152,97.99
1566.8794,97.7873
1567.8436,97.5776
1568.8079,97.35
1569.7721,97.1032
1570.7363,96.8549
1571.7006,96.6173
1572.6648,96.3809
1573.6290,96.1275
1574.5933,95.8414
1575.5575,95.5128
1576.5217,95.1554
1577.4860,94.8182
1578.4502,94.5355
1579.4144,94.2872
1580.3787,94.0326
1581.3429,93.7516
1582.3071,93.4531
1583.2714,93.1624
1584.2356,92.9003
1585.1998,92.6716
1586.1641,92.4688
1587.1283,92.2855
1588.0925,92.1225
1589.0568,91.985
1590.0210,91.8759
1590.9852,91.7925
1591.9495,91.7299
1592.9137,91.684
1593.8779,91.6522
1594.8422,91.6311
1595.8064,91.6163
1596.7706,91.6057
1597.7349,91.601
1598.6991,91.6075
1599.6633,91.631
1600.6276,91.6748
1601.5918,91.7381
1602.5560,91.8164
1603.5203,91.904
1604.4845,91.9963
1605.4487,92.0922
1606.4130,92.1948
1607.3772,92.3098
1608.3414,92.4389
1609.3057,92.5735
1610.2699,92.6962
1611.2341,92.7901
1612.1984,92.8521
1613.1626,92.9031
1614.1268,92.9937
1615.0911,93.1835
1616.0553,93.4841
1617.0195,93.8201
1617.9838,94.0993
1618.9480,94.2966
1619.9122,94.4418
1620.8765,94.5804
1621.8407,94.7504
1622.8049,94.9606
1623.7692,95.1801
1624.7334,95.3672
1625.6976,95.5107
1626.6619,95.6294
1627.6261,95.7434
1628.5903,95.8512
1629.5546,95.9319
1630.5188,95.9633
1631.4830,95.9403
1632.4473,95.8853
1633.4115,95.8503
1634.3757,95.8944
1635.3400,96.0197
1636.3042,96.1442
1637.2684,96.2081
1638.2327,96.2288
1639.1969,96.2284
1640.1611,96.2047
1641.1254,96.1484
1642.0896,96.0582
1643.0538,95.9489
1644.0181,95.853
1644.9823,95.8046
1645.9465,95.7994
1646.9108,95.7805
1647.8750,95.7028
1648.8392,95.5683
1649.8035,95.3976
1650.7677,95.2256
1651.7319,95.1067
1652.6962,95.0576
1653.6604,95.0067
1654.6246,94.9331
1655.5889,94.8848
1656.5531,94.8507
1657.5173,94.791
1658.4816,94.6893
1659.4458,94.5578
1660.4100,94.4214
1661.3743,94.2964
1662.3385,94.1806
1663.3027,94.0659
1664.2670,93.9495
1665.2312,93.8315
1666.1954,93.7152
1667.1597,93.612
1668.1239,93.5351
1669.0881,93.4825
1670.0524,93.4319
1671.0166,93.3653
1671.9808,93.2835
1672.9451,93.197
1673.9093,93.1188
1674.8735,93.0619
1675.8378,93.0325
1676.8020,93.0234
1677.7662,93.0154
1678.7305,92.9871
1679.6947,92.9284
1680.6589,92.8538
1681.6232,92.8046
1682.5874,92.8236
1683.5516,92.8968
1684.5159,92.9543
1685.4801,92.9704
1686.4443,92.9694
1687.4086,92.9606
1688.3728,92.9334
1689.3370,92.877
1690.3013,92.7879
1691.2655,92.6696
1692.2297,92.5309
1693.1940,92.3853
1694.1582,92.2493
1695.1224,92.1378
1696.0867,92.055
1697.0509,91.9889
1698.0151,91.9183
1698.9794,91.8333
1699.9436,91.7493
1700.9078,91.6921
1701.8721,91.6713
1702.8363,91.6759
1703.8005,91.6883
1704.7648,91.6964
1705.7290,91.695
1706.6932,91.6842
1707.6575,91.668
1708.6217,91.6509
1709.5859,91.6353
1710.5502,91.62
1711.5144,91.6044
1712.4786,91.5931
1713.4429,91.6029
1714.4071,91.6686
1715.3713,91.8323
1716.3356,92.0946
1717.2998,92.3789
1718.2640,92.6086
1719.2283,92.7844
1720.1925,92.9408
1721.1567,93.0999
1722.1210,93.2703
1723.0852,93.4525
1724.0494,93.642
1725.0137,93.8322
1725.9779,94.0192
1726.9421,94.2019
1727.9064,94.3771
1728.8706,94.5395
1729.8348,94.6906
1730.7991,94.851
1731.7633,95.0611
1732.7275,95.3478
1733.6918,95.6768
1734.6560,95.974
1735.6202,96.2029
1736.5845,96.377
1737.5487,96.5255
1738.5129,96.6754
1739.4772,96.8426
1740.4414,97.0234
1741.4056,97.1972
1742.3699,97.3445
1743.3341,97.4612
1744.2983,97.5549
1745.2626,97.6354
1746.2268,97.711
1747.1910,97.7898
1748.1553,97.8768
1749.1195,97.9674
1750.0837,98.0494
1751.0480,98.1159
1752.0122,98.1707
1752.9764,98.2193
1753.9407,98.2655
1754.9049,98.3112
1755.8691,98.3561
1756.8334,98.3966
1757.7976,98.4285
1758.7618,98.4522
1759.7261,98.4748
1760.6903,98.5043
1761.6545,98.5425
1762.6188,98.5833
1763.5830,98.618
1764.5472,98.6423
1765.5115,98.6578
1766.4757,98.6708
1767.4399,98.6902
1768.4042,98.7262
1769.3684,98.7867
1770.3326,98.8726
1771.2969,98.9706
1772.2611,99.0556
1773.2253,99.1107
1774.1896,99.1405
1775.1538,99.1581
1776.1180,99.173
1777.0823,99.1909
1778.0465,99.2163
1779.0107,99.2497
1779.9750,99.2858
1780.9392,99.3167
1781.9034,99.3396
1782.8677,99.3588
1783.8319,99.3808
1784.7961,99.4068
1785.7604,99.431
1786.7246,99.4448
1787.6888,99.4444
1788.6531,99.4353
1789.6173,99.4335
1790.5815,99.4558
1791.5458,99.5035
1792.5100,99.5559
1793.4742,99.5915
1794.4385,99.607
1795.4027,99.6093
1796.3669,99.6053
1797.3312,99.6012
1798.2954,99.6024
1799.2596,99.6108
1800.2239,99.6225
1801.1881,99.6315
1802.1523,99.6354
1803.1166,99.6355
1804.0808,99.6336
1805.0450,99.6303
1806.0093,99.6263
1806.9735,99.6234
1807.9377,99.6339
1808.9020,99.657
1809.8662,99.6846
1810.8304,99.7114
1811.7947,99.7322
1812.7589,99.7451
1813.7231,99.752
1814.6874,99.7566
1815.6516,99.7627
1816.6158,99.7719
1817.5801,99.7827
1818.5443,99.7912
1819.5085,99.7942
1820.4728,99.7914
1821.4370,99.7861
1822.4012,99.7833
1823.3655,99.7867
1824.3297,99.7966
1825.2939,99.8113
1826.2582,99.8297
1827.2224,99.8519
1828.1866,99.8773
1829.1509,99.9008
1830.1151,99.9147
1831.0793,99.9164
1832.0436,99.9106
1833.0078,99.9037
1833.9720,99.9002
1834.9363,99.9018
1835.9005,99.9074
1836.8647,99.9121
1837.8290,99.9095
1838.7932,99.8958
1839.7574,99.8732
1840.7217,99.8493
1841.6859,99.8362
1842.6501,99.8437
1843.6144,99.8698
1844.5786,99.8999
1845.5428,99.9202
1846.5071,99.9284
1847.4713,99.9289
1848.4355,99.9255
1849.3998,99.9211
1850.3640,99.9172
1851.3282,99.9145
1852.2925,99.9127
1853.2567,99.9111
1854.2209,99.9091
1855.1852,99.9069
1856.1494,99.9046
1857.1136,99.9025
1858.0779,99.9003
1859.0421,99.8981
1860.0063,99.8955
1860.9706,99.8922
1861.9348,99.888
1862.8990,99.8833
1863.8633,99.88
1864.8275,99.8828
1865.7917,99.8978
1866.7560,99.9278
1867.7202,99.9649
1868.6844,99.9927
1869.6487,100
1870.6129,99.9917
1871.5771,99.977
1872.5414,99.9634
1873.5056,99.9531
1874.4698,99.9465
1875.4341,99.9424
1876.3983,99.9394
1877.3625,99.9367
1878.3268,99.9347
1879.2910,99.9353
1880.2552,99.9396
1881.2195,99.9466
1882.1837,99.9533
1883.1479,99.9564
1884.1122,99.9545
1885.0764,99.95
1886.0406,99.9478
1887.0049,99.953
1887.9691,99.967
1888.9333,99.9854
1889.8976,100.001
1890.8618,100.01
1891.8260,100.011
1892.7903,100.009
1893.7545,100.008
1894.7188,100.011
1895.6830,100.015
1896.6472,100.02
1897.6115,100.021
1898.5757,100.021
1899.5399,100.02
1900.5042,100.02
1901.4684,100.022
1902.4326,100.024
1903.3969,100.026
1904.3611,100.029
1905.3253,100.033
1906.2896,100.041
1907.2538,100.053
1908.2180,100.067
1909.1823,100.081
1910.1465,100.089
1911.1107,100.09
1912.0750,100.084
1913.0392,100.074
1914.0034,100.065
1914.9677,100.061
1915.9319,100.062
1916.8961,100.068
1917.8604,100.074
1918.8246,100.078
1919.7888,100.083
1920.7531,100.09
1921.7173,100.103
1922.6815,100.118
1923.6458,100.128
1924.6100,100.129
1925.5742,100.121
1926.5385,100.108
1927.5027,100.095
1928.4669,100.087
1929.4312,100.086
1930.3954,100.088
1931.3596,100.091
1932.3239,100.093
1933.2881,100.093
1934.2523,100.092
1935.2166,100.09
1936.1808,100.087
1937.1450,100.082
1938.1093,100.078
1939.0735,100.077
1940.0377,100.083
1941.0020,100.095
1941.9662,100.111
1942.9304,100.125
1943.8947,100.131
1944.8589,100.128
1945.8231,100.118
1946.7874,100.105
1947.7516,100.091
1948.7158,100.079
1949.6801,100.069
1950.6443,100.062
1951.6085,100.059
1952.5728,100.058
1953.5370,100.059
1954.5012,100.058
1955.4655,100.056
1956.4297,100.052
1957.3939,100.047
1958.3582,100.043
1959.3224,100.042
1960.2866,100.043
1961.2509,100.045
1962.2151,100.047
1963.1793,100.049
1964.1436,100.053
1965.1078,100.057
1966.0720,100.061
1967.0363,100.062
1968.0005,100.058
1968.9647,100.05
1969.9290,100.041
1970.8932,100.034
1971.8574,100.031
1972.8217,100.031
1973.7859,100.033
1974.7501,100.033
1975.7144,100.031
1976.6786,100.028
1977.6428,100.025
1978.6071,100.024
1979.5713,100.023
1980.5355,100.023
1981.4998,100.021
1982.4640,100.019
1983.4282,100.017
1984.3925,100.017
1985.3567,100.019
1986.3209,100.022
1987.2852,100.025
1988.2494,100.029
1989.2136,100.034
1990.1779,100.039
1991.1421,100.043
1992.1063,100.044
1993.0706,100.04
1994.0348,100.032
1994.9990,100.022
1995.9633,100.014
1996.9275,100.009
1997.8917,100.007
1998.8560,100.006
1999.8202,100.007
2000.7844,100.008
2001.7487,100.009
2002.7129,100.009
2003.6771,100.009
2004.6414,100.007
2005.6056,100.003
2006.5698,99.9981
2007.5341,99.9932
2008.4983,99.9887
2009.4625,99.9843
2010.4268,99.9792
2011.3910,99.9733
2012.3552,99.9682
2013.3195,99.9662
2014.2837,99.9688
2015.2479,99.9758
2016.2122,99.9843
2017.1764,99.9903
2018.1406,99.991
2019.1049,99.9863
2020.0691,99.9786
2021.0333,99.971
2021.9976,99.9658
2022.9618,99.9635
2023.9260,99.9626
2024.8903,99.961
2025.8545,99.9571
2026.8187,99.9507
2027.7830,99.9431
2028.7472,99.9364
2029.7114,99.9328
2030.6757,99.933
2031.6399,99.9364
2032.6041,99.9411
2033.5684,99.9446
2034.5326,99.9455
2035.4968,99.9437
2036.4611,99.9403
2037.4253,99.9372
2038.3895,99.9354
2039.3538,99.935
2040.3180,99.935
2041.2822,99.9341
2042.2465,99.9313
2043.2107,99.9268
2044.1749,99.9214
2045.1392,99.9159
2046.1034,99.9109
2047.0676,99.9064
2048.0320,99.9027
2048.9961,99.8999
2049.9604,99.8985
2050.9246,99.8984
2051.8889,99.8993
2052.8530,99.9002
2053.8174,99.9
2054.7815,99.8982
2055.7458,99.8952
2056.7100,99.8919
2057.6743,99.8893
2058.6384,99.8882
2059.6028,99.8889
2060.5669,99.8915
2061.5313,99.896
2062.4954,99.902
2063.4597,99.9083
2064.4238,99.9132
2065.3882,99.915
2066.3523,99.913
2067.3167,99.9079
2068.2808,99.9018
2069.2451,99.897
2070.2092,99.895
2071.1736,99.8959
2072.1377,99.8986
2073.1021,99.902
2074.0662,99.9048
2075.0305,99.907
2075.9946,99.9087
2076.9590,99.9101
2077.9231,99.9109
2078.8875,99.9109
2079.8516,99.9104
2080.8159,99.9103
2081.7800,99.9121
2082.7444,99.9168
2083.7085,99.9244
2084.6729,99.9336
2085.6370,99.9425
2086.6013,99.9495
2087.5654,99.9537
2088.5298,99.9552
2089.4939,99.9547
2090.4583,99.9526
2091.4224,99.9493
2092.3867,99.9453
2093.3508,99.9411
2094.3152,99.9377
2095.2793,99.9359
2096.2437,99.9361
2097.2078,99.9381
2098.1721,99.9413
2099.1362,99.9455
2100.1006,99.9509
2101.0647,99.9575
2102.0291,99.9648
2102.9932,99.9713
2103.9575,99.9751
2104.9216,99.9752
2105.8860,99.9719
2106.8501,99.9672
2107.8145,99.9634
2108.7786,99.9619
2109.7429,99.9625
2110.7070,99.9639
2111.6714,99.964
2112.6355,99.9622
2113.5999,99.9587
2114.5640,99.9549
2115.5283,99.9525
2116.4924,99.9522
2117.4568,99.954
2118.4209,99.957
2119.3853,99.9597
2120.3494,99.9605
2121.3137,99.9589
2122.2778,99.9552
2123.2422,99.9508
2124.2063,99.9476
2125.1707,99.9472
2126.1348,99.95
2127.0991,99.9549
2128.0632,99.9601
2129.0276,99.9634
2129.9917,99.9636
2130.9561,99.9608
2131.9202,99.9565
2132.8845,99.9528
2133.8486,99.9517
2134.8130,99.9536
2135.7771,99.9577
2136.7415,99.9616
2137.7056,99.9634
2138.6699,99.9617
2139.6340,99.9571
2140.5984,99.9507
2141.5625,99.9444
2142.5269,99.9389
2143.4910,99.9348
2144.4553,99.932
2145.4194,99.9307
2146.3838,99.9312
2147.3479,99.9337
2148.3123,99.9376
2149.2764,99.9419
2150.2407,99.9454
2151.2048,99.9472
2152.1692,99.9471
2153.1333,99.9456
2154.0977,99.9433
2155.0618,99.9408
2156.0261,99.9383
2156.9902,99.9363
2157.9546,99.9349
2158.9187,99.9341
2159.8831,99.9337
2160.8472,99.9335
2161.8115,99.9336
2162.7756,99.9342
2163.7400,99.9356
2164.7041,99.938
2165.6685,99.9408
2166.6326,99.943
2167.5969,99.9437
2168.5610,99.9424
2169.5254,99.9393
2170.4895,99.9356
2171.4539,99.9323
2172.4180,99.9305
2173.3823,99.9308
2174.3464,99.9329
2175.3108,99.9363
2176.2749,99.9403
2177.2393,99.9441
2178.2034,99.947
2179.1677,99.9485
2180.1318,99.9487
2181.0962,99.9478
2182.0603,99.9464
2183.0247,99.9452
2183.9888,99.9442
2184.9531,99.9434
2185.9172,99.942
2186.8816,99.9396
2187.8457,99.9364
2188.8101,99.9333
2189.7742,99.9321
2190.7385,99.9339
2191.7026,99.9384
2192.6670,99.944
2193.6311,99.9483
2194.5955,99.9492
2195.5596,99.9465
2196.5239,99.9414
2197.4880,99.9363
2198.4524,99.9329
2199.4165,99.9319
2200.3809,99.9329
2201.3450,99.9348
2202.3093,99.9369
2203.2734,99.9383
2204.2378,99.9386
2205.2019,99.9373
2206.1663,99.9343
2207.1304,99.93
2208.0947,99.926
2209.0588,99.9241
2210.0232,99.9252
2210.9873,99.9286
2211.9517,99.9323
2212.9158,99.9337
2213.8801,99.9316
2214.8442,99.9266
2215.8086,99.9209
2216.7727,99.9173
2217.7371,99.9173
2218.7012,99.9207
2219.6655,99.9256
2220.6296,99.9296
2221.5940,99.9308
2222.5581,99.9283
2223.5225,99.9229
2224.4866,99.916
2225.4509,99.9092
2226.4150,99.9039
2227.3794,99.9006
2228.3435,99.8988
2229.3079,99.8975
2230.2720,99.8959
2231.2363,99.8935
2232.2004,99.8907
2233.1648,99.8883
2234.1289,99.8869
2235.0933,99.8863
2236.0574,99.8857
2237.0217,99.8837
2237.9858,99.8798
2238.9502,99.8741
2239.9143,99.8674
2240.8787,99.861
2241.8428,99.8558
2242.8071,99.8521
2243.7712,99.8499
2244.7356,99.8487
2245.6997,99.8477
2246.6641,99.8459
2247.6282,99.8425
2248.5925,99.8368
2249.5566,99.8287
2250.5210,99.8185
2251.4851,99.8073
2252.4495,99.7956
2253.4136,99.784
2254.3779,99.7724
2255.3420,99.7608
2256.3064,99.7492
2257.2705,99.7379
2258.2349,99.7271
2259.1990,99.7176
2260.1633,99.7097
2261.1274,99.7038
2262.0918,99.6996
2263.0559,99.696
2264.0203,99.6917
2264.9844,99.6859
2265.9487,99.6788
2266.9128,99.6713
2267.8772,99.6646
2268.8413,99.6586
2269.8057,99.6524
2270.7698,99.6446
2271.7341,99.6351
2272.6982,99.6255
2273.6626,99.6189
2274.6267,99.6177
2275.5911,99.6224
2276.5552,99.6309
2277.5195,99.6399
2278.4836,99.6463
2279.4480,99.6487
2280.4121,99.647
2281.3765,99.6415
2282.3406,99.6317
2283.3049,99.6165
2284.2690,99.5948
2285.2334,99.5663
2286.1975,99.5317
2287.1619,99.4927
2288.1260,99.4508
2289.0903,99.4071
2290.0544,99.3621
2291.0188,99.3161
2291.9829,99.27
2292.9473,99.2248
2293.9114,99.1815
2294.8757,99.1404
2295.8398,99.101
2296.8042,99.0623
2297.7683,99.0241
2298.7327,98.9867
2299.6968,98.9507
2300.6611,98.9156
2301.6252,98.879
2302.5896,98.8368
2303.5537,98.7849
2304.5181,98.7214
2305.4822,98.6481
2306.4465,98.5704
2307.4106,98.4958
2308.3750,98.4303
2309.3391,98.3765
2310.3035,98.3325
2311.2676,98.2933
2312.2319,98.2531
2313.1960,98.2079
2314.1604,98.1567
2315.1245,98.101
2316.0889,98.0441
2317.0530,97.9896
2318.0173,97.9406
2318.9814,97.8982
2319.9458,97.8604
2320.9099,97.8221
2321.8743,97.7779
2322.8384,97.7262
2323.8027,97.672
2324.7668,97.6268
2325.7312,97.6042
2326.6953,97.6137
2327.6597,97.6547
2328.6238,97.714
2329.5881,97.7686
2330.5522,97.7967
2331.5166,97.7903
2332.4807,97.7594
2333.4451,97.7261
2334.4092,97.7114
2335.3735,97.7244
2336.3376,97.7596
2337.3020,97.8005
2338.2661,97.8297
2339.2305,97.8392
2340.1946,97.8333
2341.1589,97.8237
2342.1230,97.8177
2343.0874,97.8112
2344.0515,97.7929
2345.0159,97.7586
2345.9800,97.7134
2346.9443,97.6642
2347.9084,97.6153
2348.8728,97.5719
2349.8369,97.5449
2350.8013,97.5543
2351.7654,97.6295
2352.7297,97.7998
2353.6938,98.0746
2354.6582,98.4257
2355.6223,98.8017
2356.5867,99.1648
2357.5508,99.5033
2358.5151,99.8097
2359.4792,100.058
2360.4436,100.209
2361.4077,100.227
2362.3721,100.099
2363.3362,99.8411
2364.3005,99.5003
2365.2646,99.1361
2366.2290,98.7987
2367.1931,98.5144
2368.1575,98.2893
2369.1216,98.1211
2370.0859,98.0088
2371.0500,97.9531
2372.0144,97.9526
2372.9785,98.0013
2373.9429,98.0882
2374.9070,98.2007
2375.8713,98.3273
2376.8354,98.4591
2377.7998,98.5906
2378.7639,98.7187
2379.7283,98.842
2380.6924,98.9599
2381.6567,99.0715
2382.6208,99.1759
2383.5852,99.2709
2384.5493,99.3541
2385.5137,99.4232
2386.4778,99.4775
2387.4421,99.5177
2388.4063,99.5464
2389.3706,99.5664
2390.3347,99.5806
2391.2991,99.5905
2392.2632,99.5971
2393.2275,99.6012
2394.1917,99.6038
2395.1560,99.6061
2396.1201,99.6088
2397.0845,99.6114
2398.0486,99.6129
2399.0129,99.6123
2399.9771,99.6102
2400.9414,99.6085
2401.9055,99.6093
2402.8699,99.6133
2403.8340,99.6193
2404.7983,99.6245
2405.7625,99.6267
2406.7268,99.6253
2407.6909,99.622
2408.6553,99.6189
2409.6194,99.6173
2410.5837,99.6168
2411.5479,99.6159
2412.5122,99.6137
2413.4763,99.6107
2414.4407,99.6089
2415.4048,99.6101
2416.3691,99.6148
2417.3333,99.6218
2418.2976,99.6289
2419.2617,99.6339
2420.2261,99.6355
2421.1902,99.6338
2422.1545,99.6295
2423.1187,99.6236
2424.0830,99.6175
2425.0471,99.6127
2426.0115,99.6103
2426.9756,99.611
2427.9399,99.6142
2428.9041,99.6182
2429.8684,99.6212
2430.8325,99.6219
2431.7969,99.6204
2432.7610,99.6182
2433.7253,99.6169
2434.6895,99.6177
2435.6538,99.6199
2436.6179,99.6222
2437.5823,99.6231
2438.5464,99.6225
2439.5107,99.6218
2440.4749,99.6232
2441.4392,99.6285
2442.4033,99.6375
2443.3677,99.6479
2444.3318,99.6565
2445.2961,99.6603
2446.2603,99.6585
2447.2246,99.6524
2448.1887,99.6447
2449.1531,99.6388
2450.1172,99.6366
2451.0815,99.6383
2452.0457,99.6421
2453.0100,99.6456
2453.9741,99.6465
2454.9385,99.6439
2455.9026,99.6389
2456.8669,99.6332
2457.8311,99.6288
2458.7954,99.6265
2459.7595,99.626
2460.7239,99.6264
2461.6880,99.6267
2462.6523,99.6264
2463.6165,99.626
2464.5808,99.6265
2465.5449,99.629
2466.5093,99.6338
2467.4734,99.6404
2468.4377,99.6473
2469.4019,99.6519
2470.3662,99.6525
2471.3303,99.6484
2472.2947,99.6412
2473.2588,99.634
2474.2231,99.6302
2475.1873,99.6315
2476.1516,99.6378
2477.1157,99.6465
2478.0801,99.6546
2479.0442,99.6598
2480.0085,99.6616
2480.9727,99.6607
2481.9370,99.659
2482.9011,99.6578
2483.8655,99.6584
2484.8296,99.6607
2485.7939,99.6644
2486.7581,99.6684
2487.7224,99.6713
2488.6865,99.6717
2489.6509,99.6689
2490.6150,99.6633
2491.5793,99.6568
2492.5435,99.6519
2493.5078,99.651
2494.4719,99.6546
2495.4363,99.6609
2496.4004,99.6666
2497.3647,99.6686
2498.3289,99.6655
2499.2932,99.659
2500.2573,99.6524
2501.2217,99.6489
2502.1858,99.6496
2503.1501,99.6529
2504.1143,99.6564
2505.0786,99.658
2506.0427,99.6581
2507.0071,99.6582
2507.9712,99.6599
2508.9355,99.6631
2509.8997,99.666
2510.8640,99.6665
2511.8281,99.6642
2512.7925,99.6606
2513.7566,99.6584
2514.7209,99.6592
2515.6851,99.6623
2516.6494,99.6655
2517.6135,99.667
2518.5779,99.6662
2519.5420,99.6651
2520.5063,99.6655
2521.4705,99.6683
2522.4348,99.6721
2523.3989,99.6741
2524.3633,99.6726
2525.3274,99.6679
2526.2917,99.6624
2527.2559,99.6596
2528.2202,99.6615
2529.1843,99.6676
2530.1487,99.6758
2531.1128,99.6829
2532.0771,99.687
2533.0413,99.6879
2534.0056,99.687
2534.9697,99.6862
2535.9341,99.6867
2536.8982,99.6884
2537.8625,99.6905
2538.8267,99.6922
2539.7910,99.6931
2540.7551,99.6941
2541.7195,99.696
2542.6836,99.6996
2543.6479,99.7046
2544.6121,99.71
2545.5764,99.7145
2546.5405,99.717
2547.5049,99.7174
2548.4690,99.716
2549.4333,99.7137
2550.3975,99.7112
2551.3618,99.7096
2552.3259,99.7094
2553.2903,99.711
2554.2544,99.7141
2555.2188,99.7178
2556.1829,99.7213
2557.1472,99.7236
2558.1113,99.7249
2559.0757,99.7255
2560.0398,99.7263
2561.0042,99.7278
2561.9683,99.7299
2562.9326,99.7323
2563.8967,99.7345
2564.8611,99.7364
2565.8252,99.7385
2566.7896,99.741
2567.7537,99.7442
2568.7180,99.7481
2569.6821,99.7522
2570.6465,99.7559
2571.6106,99.7588
2572.5750,99.7606
2573.5391,99.7614
2574.5034,99.7617
2575.4675,99.7618
2576.4319,99.7622
2577.3960,99.763
2578.3604,99.7644
2579.3245,99.7666
2580.2888,99.7698
2581.2529,99.7739
2582.2173,99.7788
2583.1814,99.7835
2584.1458,99.787
2585.1099,99.7885
2586.0742,99.7879
2587.0383,99.7864
2588.0027,99.7857
2588.9668,99.7874
2589.9312,99.792
2590.8953,99.7987
2591.8596,99.8056
2592.8237,99.8109
2593.7881,99.8138
2594.7522,99.8145
2595.7166,99.8143
2596.6807,99.8143
2597.6450,99.8154
2598.6091,99.8175
2599.5735,99.8199
2600.5376,99.8221
2601.5020,99.8238
2602.4661,99.8253
2603.4304,99.8267
2604.3945,99.828
2605.3589,99.8291
2606.3230,99.8298
2607.2874,99.83
2608.2515,99.8304
2609.2158,99.8314
2610.1799,99.8335
2611.1443,99.8361
2612.1084,99.8385
2613.0728,99.8404
2614.0369,99.8418
2615.0012,99.8437
2615.9653,99.8472
2616.9297,99.8524
2617.8938,99.8581
2618.8582,99.8625
2619.8223,99.8643
2620.7866,99.8631
2621.7507,99.8604
2622.7151,99.8576
2623.6792,99.8561
2624.6436,99.856
2625.6077,99.8566
2626.5720,99.8572
2627.5361,99.8574
2628.5005,99.8573
2629.4646,99.8571
2630.4290,99.857
2631.3931,99.8568
2632.3574,99.8566
2633.3215,99.8567
2634.2859,99.8573
2635.2500,99.8588
2636.2144,99.8614
2637.1785,99.8657
2638.1428,99.8722
2639.1069,99.8811
2640.0713,99.8916
2641.0354,99.9014
2641.9998,99.908
2642.9639,99.9094
2643.9282,99.9058
2644.8923,99.8997
2645.8567,99.8946
2646.8208,99.8935
2647.7852,99.8975
2648.7493,99.9053
2649.7136,99.9143
2650.6777,99.9223
2651.6421,99.9275
2652.6062,99.9297
2653.5706,99.9292
2654.5347,99.9269
2655.4990,99.9244
2656.4631,99.9233
2657.4275,99.9247
2658.3916,99.929
2659.3560,99.9354
2660.3201,99.9418
2661.2844,99.946
2662.2485,99.9472
2663.2129,99.9457
2664.1770,99.9436
2665.1414,99.9431
2666.1055,99.9461
2667.0698,99.9524
2668.0339,99.9609
2668.9983,99.9692
2669.9624,99.9751
2670.9268,99.9773
2671.8909,99.9761
2672.8552,99.9728
2673.8193,99.9693
2674.7837,99.9672
2675.7478,99.9671
2676.7122,99.9685
2677.6763,99.9702
2678.6406,99.9713
2679.6047,99.9715
2680.5691,99.971
2681.5332,99.9699
2682.4976,99.9678
2683.4617,99.9642
2684.4260,99.959
2685.3901,99.953
2686.3545,99.9476
2687.3186,99.9441
2688.2830,99.9428
2689.2471,99.9428
2690.2114,99.9428
2691.1755,99.9415
2692.1399,99.9388
2693.1040,99.9353
2694.0684,99.9323
2695.0325,99.9308
2695.9968,99.9314
2696.9609,99.9343
2697.9253,99.9386
2698.8894,99.9427
2699.8538,99.9444
2700.8179,99.9423
2701.7822,99.9366
2702.7463,99.9296
2703.7107,99.9246
2704.6748,99.924
2705.6392,99.9274
2706.6033,99.9318
2707.5676,99.9334
2708.5317,99.9299
2709.4961,99.9221
2710.4602,99.9136
2711.4246,99.909
2712.3887,99.9108
2713.3530,99.9189
2714.3171,99.9306
2715.2815,99.9425
2716.2456,99.9514
2717.2100,99.9557
2718.1741,99.9555
2719.1384,99.9515
2720.1025,99.9452
2721.0669,99.9378
2722.0310,99.9304
2722.9954,99.9236
2723.9595,99.9173
2724.9238,99.9112
2725.8879,99.9054
2726.8523,99.9002
2727.8164,99.8966
2728.7808,99.8952
2729.7449,99.896
2730.7092,99.8983
2731.6733,99.9011
2732.6377,99.9037
2733.6018,99.9058
2734.5662,99.9077
2735.5303,99.9098
2736.4946,99.9128
2737.4587,99.9167
2738.4231,99.9214
2739.3872,99.9268
2740.3516,99.9327
2741.3157,99.9391
2742.2800,99.9461
2743.2441,99.9539
2744.2085,99.9621
2745.1726,99.9697
2746.1370,99.9755
2747.1011,99.978
2748.0654,99.9771
2749.0295,99.9743
2749.9939,99.9722
2750.9580,99.9735
2751.9224,99.9793
2752.8865,99.9888
2753.8508,99.9988
2754.8149,100.006
2755.7793,100.008
2756.7434,100.004
2757.7078,99.9981
2758.6719,99.9935
2759.6362,99.9934
2760.6003,99.9982
2761.5647,100.006
2762.5288,100.014
2763.4932,100.02
2764.4573,100.023
2765.4216,100.023
2766.3857,100.025
2767.3501,100.028
2768.3142,100.031
2769.2786,100.032
2770.2427,100.03
2771.2070,100.022
2772.1711,100.012
2773.1355,100.001
2774.0996,99.9938
2775.0640,99.991
2776.0281,99.9922
2776.9924,99.9951
2777.9565,99.9976
2778.9209,99.9983
2779.8850,99.9968
2780.8494,99.9938
2781.8135,99.9903
2782.7778,99.986
2783.7419,99.979
2784.7063,99.9729
2785.6704,99.9669
2786.6348,99.9599
2787.5989,99.9507
2788.5632,99.9386
2789.5273,99.9241
2790.4917,99.9087
2791.4558,99.8945
2792.4202,99.8835
2793.3843,99.8761
2794.3486,99.8713
2795.3127,99.8666
2796.2771,99.8594
2797.2412,99.8477
2798.2056,99.8315
2799.1697,99.8121
2800.1340,99.7918
2801.0981,99.7731
2802.0625,99.7577
2803.0266,99.7463
2803.9910,99.7386
2804.9551,99.7329
2805.9194,99.7262
2806.8835,99.7153
2807.8479,99.6979
2808.8120,99.6733
2809.7764,99.6438
2810.7405,99.6129
2811.7048,99.5847
2812.6689,99.561
2813.6333,99.5413
2814.5974,99.5229
2815.5618,99.5025
2816.5259,99.4776
2817.4902,99.4477
2818.4543,99.4134
2819.4187,99.3761
2820.3828,99.3364
2821.3472,99.2941
2822.3113,99.2486
2823.2756,99.199
2824.2397,99.1449
2825.2041,99.0865
2826.1682,99.0239
2827.1326,98.9577
2828.0967,98.8887
2829.0610,98.8178
2830.0251,98.7465
2830.9895,98.6764
2831.9536,98.609
2832.9180,98.5456
2833.8821,98.487
2834.8464,98.4343
2835.8105,98.3885
2836.7749,98.3515
2837.7390,98.3252
2838.7034,98.3117
2839.6675,98.3129
2840.6318,98.33
2841.5959,98.3637
2842.5603,98.4137
2843.5244,98.4791
2844.4888,98.5585
2845.4529,98.6504
2846.4172,98.7529
2847.3813,98.8625
2848.3457,98.9741
2849.3098,99.0805
2850.2742,99.1743
2851.2383,99.2496
2852.2026,99.3041
2853.1667,99.3389
2854.1311,99.3573
2855.0952,99.3636
2856.0596,99.3615
2857.0237,99.3541
2857.9880,99.3444
2858.9521,99.3355
2859.9165,99.3299
2860.8806,99.3287
2861.8450,99.3316
2862.8091,99.3371
2863.7734,99.3442
2864.7375,99.353
2865.7019,99.3651
2866.6660,99.3823
2867.6304,99.4052
2868.5945,99.4324
2869.5588,99.4604
2870.5229,99.4849
2871.4873,99.5027
2872.4514,99.5132
2873.4158,99.5198
2874.3799,99.5282
2875.3442,99.5445
2876.3083,99.5732
2877.2727,99.6151
2878.2368,99.6674
2879.2012,99.7253
2880.1653,99.7829
2881.1296,99.8354
2882.0938,99.8799
2883.0581,99.9153
2884.0222,99.9417
2884.9866,99.9598
2885.9507,99.9706
2886.9150,99.9756
2887.8792,99.9774
2888.8435,99.9791
2889.8076,99.9832
2890.7720,99.9897
2891.7361,99.9874
2892.7004,99.9765
2893.6646,99.9605
2894.6289,99.9468
2895.5930,99.9484
2896.5574,99.9769
2897.5215,100.034
2898.4858,100.104
2899.4500,100.161
2900.4143,100.178
2901.3784,100.141
2902.3428,100.058
2903.3069,99.9496
2904.2712,99.8431
2905.2354,99.7584
2906.1997,99.7037
2907.1638,99.6771
2908.1282,99.6716
2909.0923,99.6782
2910.0566,99.6885
2911.0208,99.6949
2911.9851,99.692
2912.9492,99.6781
2913.9136,99.6558
2914.8777,99.6305
2915.8420,99.6071
2916.8062,99.5869
2917.7705,99.5672
2918.7346,99.5425
2919.6990,99.5076
2920.6631,99.4591
2921.6274,99.3964
2922.5916,99.3206
2923.5559,99.2331
2924.5200,99.1347
2925.4844,99.0247
2926.4485,98.9022
2927.4128,98.7673
2928.3770,98.623
2929.3413,98.4757
2930.3054,98.334
2931.2698,98.2061
2932.2339,98.0972
2933.1982,98.0083
2934.1624,97.9378
2935.1267,97.883
2936.0908,97.8425
2937.0552,97.8167
2938.0193,97.8067
2938.9836,97.8132
2939.9478,97.8352
2940.9121,97.8702
2941.8762,97.9142
2942.8406,97.9628
2943.8047,98.013
2944.7690,98.0637
2945.7332,98.1162
2946.6975,98.1735
2947.6616,98.2378
2948.6260,98.3091
2949.5901,98.3845
2950.5544,98.46
2951.5186,98.532
2952.4829,98.5999
2953.4470,98.6656
2954.4114,98.7317
2955.3755,98.799
2956.3398,98.8659
2957.3040,98.9286
2958.2683,98.9839
2959.2324,99.0312
2960.1968,99.0735
2961.1609,99.1166
2962.1252,99.1665
2963.0894,99.2261
2964.0537,99.2943
2965.0178,99.3663
2965.9822,99.4366
2966.9463,99.501
2967.9106,99.5582
2968.8748,99.6087
2969.8391,99.6529
2970.8032,99.69
2971.7676,99.7182
2972.7317,99.7372
2973.6960,99.75
2974.6602,99.7622
2975.6245,99.7795
2976.5886,99.8048
2977.5530,99.8364
2978.5171,99.8697
2979.4814,99.9003
2980.4456,99.9277
2981.4099,99.9574
2982.3740,99.9983
2983.3384,100.059
2984.3025,100.142
2985.2668,100.239
2986.2310,100.328
2987.1953,100.385
2988.1594,100.388
2989.1238,100.337
2990.0879,100.236
2991.0522,100.111
2992.0164,99.9921
2992.9807,99.8986
2993.9448,99.835
2994.9092,99.7914
2995.8733,99.7518
2996.8376,99.7041
2997.8018,99.6454
2998.7661,99.5805
2999.7302,99.5167
3000.6946,99.4584
3001.6587,99.4044
3002.6230,99.35
3003.5872,99.291
3004.5515,99.2263
3005.5156,99.1591
3006.4800,99.0936
3007.4441,99.0332
3008.4084,98.9782
3009.3726,98.9267
3010.3369,98.8767
3011.3010,98.8271
3012.2654,98.7778
3013.2295,98.7288
3014.1938,98.6785
3015.1580,98.6244
3016.1223,98.5645
3017.0864,98.5003
3018.0508,98.4365
3019.0149,98.379
3019.9792,98.3315
3020.9434,98.2923
3021.9077,98.2557
3022.8718,98.2151
3023.8362,98.1675
3024.8003,98.1158
3025.7646,98.0671
3026.7288,98.0292
3027.6931,98.006
3028.6572,97.9951
3029.6216,97.989
3030.5857,97.978
3031.5500,97.9547
3032.5142,97.9169
3033.4785,97.8689
3034.4426,97.8188
3035.4070,97.7753
3036.3711,97.744
3037.3354,97.7255
3038.2996,97.7156
3039.2639,97.7078
3040.2280,97.6963
3041.1924,97.6784
3042.1565,97.6554
3043.1208,97.6311
3044.0850,97.6093
3045.0493,97.592
3046.0134,97.579
3046.9778,97.5678
3047.9419,97.5561
3048.9063,97.5425
3049.8704,97.5275
3050.8347,97.5126
3051.7988,97.4996
3052.7632,97.4896
3053.7273,97.4826
3054.6917,97.4776
3055.6558,97.4732
3056.6201,97.4676
3057.5842,97.4598
3058.5486,97.4493
3059.5127,97.4373
3060.4771,97.4256
3061.4412,97.417
3062.4055,97.4134
3063.3696,97.4149
3064.3340,97.4194
3065.2981,97.4229
3066.2625,97.4216
3067.2266,97.4134
3068.1909,97.3989
3069.1550,97.3811
3070.1194,97.3635
3071.0835,97.3493
3072.0479,97.3402
3073.0120,97.3366
3073.9763,97.3382
3074.9404,97.3442
3075.9048,97.3532
3076.8689,97.3635
3077.8333,97.373
3078.7974,97.3796
3079.7617,97.3824
3080.7258,97.3816
3081.6902,97.3784
3082.6543,97.3747
3083.6187,97.3717
3084.5828,97.3697
3085.5471,97.3673
3086.5112,97.3626
3087.4756,97.3539
3088.4397,97.3415
3089.4041,97.3281
3090.3682,97.3181
3091.3325,97.3151
3092.2966,97.3201
3093.2610,97.3303
3094.2251,97.3404
3095.1895,97.3455
3096.1536,97.3439
3097.1179,97.3374
3098.0820,97.3293
3099.0464,97.3215
3100.0105,97.3133
3100.9749,97.3025
3101.9390,97.2878
3102.9033,97.2707
3103.8674,97.2546
3104.8318,97.2422
3105.7959,97.2338
3106.7603,97.2263
3107.7244,97.2162
3108.6887,97.2021
3109.6528,97.1866
3110.6172,97.1741
3111.5813,97.1683
3112.5457,97.1691
3113.5098,97.173
3114.4741,97.1749
3115.4382,97.1718
3116.4026,97.164
3117.3667,97.154
3118.3311,97.1439
3119.2952,97.134
3120.2595,97.1227
3121.2236,97.1081
3122.1880,97.0904
3123.1521,97.072
3124.1165,97.0557
3125.0806,97.043
3126.0449,97.0335
3127.0090,97.0256
3127.9734,97.0185
3128.9375,97.0131
3129.9019,97.0114
3130.8660,97.014
3131.8303,97.0194
3132.7944,97.024
3133.7588,97.0234
3134.7229,97.0154
3135.6873,97.0007
3136.6514,96.9819
3137.6157,96.9626
3138.5798,96.9459
3139.5442,96.9332
3140.5083,96.9248
3141.4727,96.9198
3142.4368,96.9173
3143.4011,96.9159
3144.3652,96.9152
3145.3296,96.9147
3146.2937,96.9143
3147.2581,96.9129
3148.2222,96.9089
3149.1865,96.9007
3150.1506,96.8875
3151.1150,96.8701
3152.0791,96.8507
3153.0435,96.8325
3154.0076,96.8178
3154.9719,96.8082
3155.9360,96.8029
3156.9004,96.7993
3157.8645,96.7928
3158.8289,96.7789
3159.7930,96.7557
3160.7573,96.7261
3161.7214,96.6979
3162.6858,96.6803
3163.6499,96.679
3164.6143,96.6928
3165.5784,96.7137
3166.5427,96.7308
3167.5068,96.7361
3168.4712,96.7282
3169.4353,96.6439
3170.3997,96.6264
3171.3638,96.6134
3172.3281,96.606
3173.2922,96.6023
3174.2566,96.5996
3175.2207,96.5959
3176.1851,96.5901
3177.1492,96.5814
3178.1135,96.5695
3179.0776,96.5555
3180.0420,96.5411
3181.0061,96.5288
3181.9705,96.5198
3182.9346,96.5133
3183.8989,96.5068
3184.8630,96.4986
3185.8274,96.4889
3186.7915,96.4797
3187.7559,96.4734
3188.7200,96.4698
3189.6843,96.4659
3190.6484,96.4579
3191.6128,96.4434
3192.5769,96.4235
3193.5413,96.402
3194.5054,96.3832
3195.4697,96.3696
3196.4338,96.3611
3197.3982,96.3564
3198.3623,96.3551
3199.3267,96.3581
3200.2908,96.3658
3201.2551,96.3762
3202.2192,96.384
3203.1836,96.3822
3204.1477,96.3664
3205.1121,96.3371
3206.0762,96.3013
3207.0405,96.269
3208.0046,96.2491
3208.9690,96.245
3209.9331,96.253
3210.8975,96.2648
3211.8616,96.2718
3212.8259,96.2694
3213.7900,96.2582
3214.7544,96.2432
3215.7185,96.2304
3216.6829,96.2235
3217.6470,96.2227
3218.6113,96.225
3219.5754,96.2263
3220.5398,96.2232
3221.5039,96.2139
3222.4683,96.1983
3223.4324,96.1781
3224.3967,96.1564
3225.3608,96.1377
3226.3252,96.1268
3227.2893,96.127
3228.2537,96.138
3229.2178,96.1557
3230.1821,96.1729
3231.1462,96.1827
3232.1106,96.1814
3233.0747,96.1692
3234.0391,96.1494
3235.0032,96.1259
3235.9675,96.1013
3236.9316,96.0769
3237.8960,96.0533
3238.8601,96.0316
3239.8245,96.0133
3240.7886,96.0003
3241.7529,95.9935
3242.7170,95.9925
3243.6814,95.9955
3244.6455,95.9996
3245.6099,96.0013
3246.5740,95.9975
3247.5383,95.9865
3248.5024,95.9687
3249.4668,95.9474
3250.4309,95.9274
3251.3953,95.9131
3252.3594,95.9061
3253.3237,95.9038
3254.2878,95.9007
3255.2522,95.8912
3256.2163,95.8731
3257.1807,95.8481
3258.1448,95.8209
3259.1091,95.7964
3260.0732,95.7777
3261.0376,95.7654
3262.0017,95.7587
3262.9661,95.7562
3263.9302,95.7566
3264.8945,95.7582
3265.8586,95.7589
3266.8230,95.7559
3267.7871,95.7481
3268.7515,95.736
3269.7156,95.7226
3270.6799,95.7115
3271.6440,95.705
3272.6084,95.7026
3273.5725,95.7016
3274.5369,95.6983
3275.5010,95.6906
3276.4653,95.6792
3277.4294,95.667
3278.3938,95.6574
3279.3579,95.6521
3280.3223,95.6503
3281.2864,95.6491
3282.2507,95.6453
3283.2148,95.6375
3284.1792,95.6264
3285.1433,95.6148
3286.1077,95.6051
3287.0718,95.5982
3288.0361,95.5935
3289.0002,95.589
3289.9646,95.5834
3290.9287,95.5764
3291.8931,95.5683
3292.8572,95.5593
3293.8215,95.5492
3294.7856,95.5372
3295.7500,95.5236
3296.7141,95.5103
3297.6785,95.5001
3298.6426,95.4956
3299.6069,95.4976
3300.5710,95.5041
3301.5354,95.5117
3302.4995,95.5171
3303.4639,95.5178
3304.4280,95.5127
3305.3923,95.5018
3306.3564,95.4863
3307.3208,95.4681
3308.2849,95.4507
3309.2493,95.4378
3310.2134,95.4317
3311.1777,95.4314
3312.1418,95.4328
3313.1062,95.4297
3314.0703,95.4177
3315.0347,95.3959
3315.9988,95.3677
3316.9631,95.3394
3317.9272,95.3177
3318.8916,95.3076
3319.8557,95.311
3320.8201,95.3268
3321.7842,95.3504
3322.7485,95.3747
3323.7126,95.3918
3324.6770,95.3956
3325.6411,95.3844
3326.6055,95.362
3327.5696,95.3352
3328.5339,95.3115
3329.4980,95.2947
3330.4624,95.2847
3331.4265,95.2785
3332.3909,95.2733
3333.3550,95.2681
3334.3193,95.2643
3335.2834,95.2645
3336.2478,95.2707
3337.2119,95.2828
3338.1763,95.2978
3339.1404,95.3106
3340.1047,95.3156
3341.0688,95.3099
3342.0332,95.2953
3342.9973,95.2785
3343.9617,95.2684
3344.9258,95.2712
3345.8901,95.2857
3346.8542,95.3037
3347.8186,95.3133
3348.7827,95.3061
3349.7471,95.281
3350.7112,95.2452
3351.6755,95.2094
3352.6396,95.1829
3353.6040,95.1701
3354.5681,95.1704
3355.5325,95.1792
3356.4966,95.1907
3357.4609,95.199
3358.4250,95.1995
3359.3894,95.1911
3360.3535,95.1761
3361.3179,95.1607
3362.2820,95.1522
3363.2463,95.1553
3364.2104,95.1696
3365.1748,95.1897
3366.1389,95.2074
3367.1033,95.2158
3368.0674,95.2125
3369.0317,95.2004
3369.9958,95.1853
3370.9602,95.1741
3371.9243,95.1714
3372.8887,95.1778
3373.8528,95.1897
3374.8171,95.1999
3375.7813,95.2016
3376.7456,95.1915
3377.7097,95.1714
3378.6741,95.1476
3379.6382,95.127
3380.6025,95.1143
3381.5667,95.1104
3382.5310,95.1132
3383.4951,95.1193
3384.4595,95.125
3385.4236,95.1274
3386.3879,95.1246
3387.3521,95.116
3388.3164,95.1032
3389.2805,95.0899
3390.2449,95.0801
3391.2090,95.076
3392.1733,95.0763
3393.1375,95.0777
3394.1018,95.0773
3395.0659,95.0754
3396.0303,95.0742
3396.9944,95.0759
3397.9587,95.0799
3398.9229,95.0832
3399.8872,95.0821
3400.8513,95.0756
3401.8157,95.0668
3402.7798,95.0602
3403.7441,95.0593
3404.7083,95.0631
3405.6726,95.067
3406.6367,95.0655
3407.6011,95.0558
3408.5652,95.0396
3409.5295,95.022
3410.4937,95.009
3411.4580,95.0039
3412.4221,95.0061
3413.3865,95.0116
3414.3506,95.0155
3415.3149,95.0146
3416.2791,95.0097
3417.2434,95.0041
3418.2075,95.0016
3419.1719,95.0043
3420.1360,95.0114
3421.1003,95.0204
3422.0645,95.0296
3423.0288,95.0389
3423.9929,95.0486
3424.9573,95.0583
3425.9214,95.0656
3426.8857,95.0671
3427.8499,95.0604
3428.8142,95.0466
3429.7783,95.0307
3430.7427,95.0196
3431.7068,95.0184
3432.6711,95.0272
3433.6353,95.0406
3434.5996,95.0512
3435.5637,95.0531
3436.5281,95.0455
3437.4922,95.0324
3438.4565,95.0191
3439.4207,95.0087
3440.3850,95.0011
3441.3491,94.9947
3442.3135,94.99
3443.2776,94.9919
3444.2419,95.008
3445.2061,95.0424
3446.1704,95.0909
3447.1345,95.141
3448.0989,95.1782
3449.0630,95.1952
3450.0273,95.1946
3450.9915,95.1863
3451.9558,95.1813
3452.9199,95.1857
3453.8843,95.1978
3454.8484,95.21
3455.8127,95.2148
3456.7769,95.2104
3457.7412,95.2021
3458.7053,95.1989
3459.6697,95.2081
3460.6338,95.2303
3461.5981,95.2596
3462.5623,95.2876
3463.5266,95.3087
3464.4907,95.3233
3465.4551,95.337
3466.4192,95.3557
3467.3835,95.3809
3468.3477,95.4085
3469.3120,95.4306
3470.2761,95.4409
3471.2405,95.4387
3472.2046,95.4291
3473.1689,95.419
3474.1331,95.413
3475.0974,95.4111
3476.0615,95.4108
3477.0259,95.4113
3477.9900,95.4158
3478.9543,95.43
3479.9185,95.4568
3480.8828,95.4916
3481.8469,95.5232
3482.8113,95.5417
3483.7754,95.5441
3484.7397,95.5362
3485.7039,95.528
3486.6682,95.5273
3487.6323,95.535
3488.5967,95.5453
3489.5608,95.5519
3490.5251,95.5531
3491.4893,95.5538
3492.4536,95.5632
3493.4177,95.5878
3494.3821,95.6264
3495.3462,95.6682
3496.3105,95.6989
3497.2747,95.7095
3498.2390,95.7027
3499.2031,95.692
3500.1675,95.6952
3501.1316,95.7223
3502.0959,95.767
3503.0601,95.8088
3504.0244,95.8288
3504.9885,95.8224
3505.9529,95.8006
3506.9170,95.7832
3507.8813,95.7883
3508.8455,95.8225
3509.8098,95.8762
3510.7739,95.9304
3511.7383,95.9694
3512.7024,95.9881
3513.6667,95.9917
3514.6309,95.9891
3515.5952,95.987
3516.5593,95.9875
3517.5237,95.9897
3518.4878,95.9932
3519.4521,96.0005
3520.4163,96.0168
3521.3806,96.046
3522.3447,96.0881
3523.3091,96.1399
3524.2732,96.198
3525.2375,96.2606
3526.2017,96.3263
3527.1660,96.3897
3528.1301,96.4416
3529.0945,96.4735
3530.0586,96.4838
3531.0229,96.4787
3531.9871,96.4696
3532.9514,96.4687
3533.9155,96.485
3534.8799,96.521
3535.8440,96.5708
3536.8083,96.6235
3537.7725,96.6686
3538.7368,96.7006
3539.7009,96.7196
3540.6653,96.733
3541.6294,96.7561
3542.5938,96.8076
3543.5579,96.8975
3544.5222,97.0133
3545.4863,97.1227
3546.4507,97.1952
3547.4148,97.2223
3548.3792,97.2171
3549.3433,97.2041
3550.3076,97.2101
3551.2717,97.2539
3552.2361,97.3363
3553.2002,97.439
3554.1646,97.5368
3555.1287,97.613
3556.0930,97.6656
3557.0571,97.7039
3558.0215,97.7389
3558.9856,97.7708
3559.9500,97.7857
3560.9141,97.7649
3561.8784,97.7031
3562.8425,97.6238
3563.8069,97.5817
3564.7710,97.6379
3565.7354,97.8014
3566.6995,97.9929
3567.6638,98.1157
3568.6279,98.151
3569.5923,98.1333
3570.5564,98.0915
3571.5208,98.0425
3572.4849,98.0051
3573.4492,97.9997
3574.4133,98.0354
3575.3777,98.1045
3576.3418,98.1884
3577.3062,98.2688
3578.2703,98.3327
3579.2346,98.3684
3580.1987,98.3627
3581.1631,98.3046
3582.1272,98.1953
3583.0916,98.061
3584.0557,97.9587
3585.0200,97.9582
3585.9841,98.0867
3586.9485,98.2773
3587.9126,98.4164
3588.8770,98.4518
3589.8411,98.4053
3590.8054,98.3184
3591.7695,98.232
3592.7339,98.1848
3593.6980,98.1977
3594.6624,98.2577
3595.6265,98.3299
3596.5908,98.389
3597.5549,98.4349
3598.5193,98.4811
3599.4834,98.5329
3600.4478,98.5773
3601.4119,98.5912
3602.3762,98.5602
3603.3403,98.4888
3604.3047,98.4022
3605.2688,98.339
3606.2332,98.3318
3607.1973,98.384
3608.1616,98.4674
3609.1257,98.551
3610.0901,98.6236
3611.0542,98.6851
3612.0186,98.7287
3612.9829,98.7376
3613.9470,98.7
3614.9114,98.6274
3615.8755,98.5602
3616.8398,98.5524
3617.8040,98.6354
3618.7683,98.781
3619.7324,98.9136
3620.6968,98.9721
3621.6609,98.9361
3622.6252,98.8012
3623.5894,98.5721
3624.5537,98.2911
3625.5178,98.0656
3626.4822,98.0481
3627.4463,98.3166
3628.4106,98.7273
3629.3748,99.0228
3630.3391,99.1203
3631.3032,99.0988
3632.2676,99.035
3633.2317,98.9691
3634.1960,98.9282
3635.1602,98.9315
3636.1245,98.9838
3637.0886,99.0748
3638.0530,99.1874
3639.0171,99.3035
3639.9814,99.4032
3640.9456,99.4612
3641.9099,99.4497
3642.8740,99.351
3643.8384,99.179
3644.8025,99.0052
3645.7668,98.9811
3646.7310,99.3011
3647.6953,99.9929
3648.6594,100.652
3649.6238,100.813
3650.5879,100.569
3651.5522,100.232
3652.5164,99.9349
3653.4807,99.7047
3654.4448,99.5709
3655.4092,99.5688
3656.3733,99.692
3657.3376,99.88
3658.3018,100.063
3659.2661,100.203
3660.2302,100.296
3661.1946,100.355
3662.1587,100.381
3663.1230,100.356
3664.0872,100.256
3665.0515,100.083
3666.0156,99.8924
3666.9800,99.7835
3667.9441,99.8426
3668.9084,100.034
3669.8726,100.192
3670.8369,100.182
3671.8010,100.025
3672.7654,99.854
3673.7295,99.8152
3674.6938,99.9698
3675.6580,100.215
3676.6223,100.39
3677.5864,100.446
3678.5508,100.429
3679.5149,100.374
3680.4792,100.291
3681.4434,100.184
3682.4077,100.048
3683.3718,99.8714
3684.3362,99.6565
3685.3003,99.4506
3686.2646,99.3576
3687.2288,99.4969
3688.1931,99.8783
3689.1572,100.308
3690.1216,100.548
3691.0857,100.555
3692.0500,100.421
3693.0142,100.225
3693.9785,100.002
3694.9426,99.7722
3695.9070,99.5503
3696.8711,99.3566
3697.8354,99.2184
3698.7996,99.1687
3699.7639,99.2309
3700.7280,99.3895
3701.6924,99.5773
3702.6565,99.7082
3703.6208,99.7261
3704.5850,99.6206
3705.5493,99.4153
3706.5134,99.1655
3707.4778,98.9649
3708.4419,98.9333
3709.4063,99.1454
3710.3704,99.5224
3711.3347,99.8529
3712.2988,100.005
3713.2632,100.007
3714.2273,99.924
3715.1917,99.7878
3716.1558,99.6178
3717.1201,99.4468
3718.0842,99.32
3719.0486,99.2759
3720.0127,99.3269
3720.9771,99.458
3721.9412,99.6409
3722.9055,99.8452
3723.8696,100.035
3724.8340,100.166
3725.7981,100.199
3726.7625,100.117
3727.7266,99.929
3728.6909,99.6646
3729.6550,99.3779
3730.6194,99.1592
3731.5835,99.1357
3732.5479,99.4323
3733.5120,100.059
3734.4763,100.79
3735.4404,101.28
3736.4048,101.394
3737.3689,101.236
3738.3333,100.926
3739.2974,100.509
3740.2617,100.024
3741.2258,99.5652
3742.1902,99.285
3743.1543,99.3009
3744.1187,99.5558
3745.0828,99.8401
3746.0471,99.9993
3747.0112,100.034
3747.9756,100.042
3748.9397,100.137
3749.9041,100.318
3750.8682,100.426
3751.8325,100.345
3752.7966,100.141
3753.7610,99.9098
3754.7251,99.6869
3755.6895,99.5019
3756.6536,99.4031
3757.6179,99.4215
3758.5820,99.5253
3759.5464,99.634
3760.5105,99.6821
3761.4749,99.653
3762.4390,99.5672
3763.4033,99.4611
3764.3674,99.3722
3765.3318,99.327
3766.2959,99.3347
3767.2603,99.3892
3768.2244,99.4736
3769.1887,99.5619
3770.1528,99.6233
3771.1172,99.6331
3772.0813,99.5814
3773.0457,99.4719
3774.0098,99.323
3774.9741,99.1733
3775.9382,99.0808
3776.9026,99.0979
3777.8667,99.2287
3778.8311,99.4106
3779.7952,99.5586
3780.7595,99.6281
3781.7236,99.6282
3782.6880,99.5931
3783.6521,99.5551
3784.6165,99.5295
3785.5806,99.5149
3786.5449,99.5023
3787.5090,99.4833
3788.4734,99.4534
3789.4375,99.4099
3790.4019,99.3538
3791.3660,99.2959
3792.3303,99.2588
3793.2944,99.2683
3794.2588,99.3329
3795.2229,99.4289
3796.1873,99.51
3797.1514,99.5424
3798.1157,99.5325
3799.0798,99.5167
3800.0442,99.5145
3801.0083,99.496
3801.9727,99.4171
3802.9368,99.2786
3803.9011,99.1267
3804.8652,99.0241
3805.8296,99.0259
3806.7937,99.145
3807.7581,99.3298
3808.7222,99.4937
3809.6865,99.5665
3810.6506,99.5217
3811.6150,99.3867
3812.5791,99.2406
3813.5435,99.1788
3814.5076,99.2425
3815.4719,99.3716
3816.4360,99.4619
3817.4004,99.4681
3818.3645,99.4281
3819.3289,99.4048
3820.2930,99.4195
3821.2573,99.4453
3822.2214,99.4586
3823.1858,99.4622
3824.1499,99.4641
3825.1143,99.4679
3826.0784,99.4785
3827.0427,99.5023
3828.0068,99.5406
3828.9712,99.586
3829.9353,99.6244
3830.8997,99.6372
3831.8638,99.604
3832.8281,99.511
3833.7922,99.364
3834.7566,99.199
3835.7207,99.075
3836.6851,99.0447
3837.6492,99.1174
3838.6135,99.2539
3839.5776,99.406
3840.5420,99.5514
3841.5061,99.6882
3842.4705,99.8152
3843.4346,99.9209
3844.3989,99.9814
3845.3630,99.9643
3846.3274,99.8345
3847.2915,99.5663
3848.2559,99.1649
3849.2200,98.7003
3850.1843,98.3423
3851.1484,98.3446
3852.1128,98.848
3853.0769,99.563
3854.0413,100.006
3855.0054,100.108
3855.9697,100.044
3856.9338,99.895
3857.8982,99.673
3858.8623,99.4071
3859.8267,99.1702
3860.7908,99.0571
3861.7551,99.1261
3862.7192,99.3378
3863.6836,99.5619
3864.6477,99.6734
3865.6121,99.6361
3866.5762,99.4983
3867.5405,99.3471
3868.5046,99.2661
3869.4690,99.2976
3870.4331,99.4195
3871.3975,99.5621
3872.3616,99.6582
3873.3259,99.6751
3874.2900,99.6117
3875.2544,99.4859
3876.2185,99.3316
3877.1829,99.1986
3878.1470,99.141
3879.1113,99.1893
3880.0754,99.323
3881.0398,99.4781
3882.0039,99.5909
3882.9683,99.6326
3883.9324,99.6069
3884.8967,99.5282
3885.8608,99.4122
3886.8252,99.2781
3887.7893,99.1558
3888.7537,99.0918
3889.7178,99.1407
3890.6821,99.3235
3891.6462,99.5804
3892.6106,99.7933
3893.5747,99.8706
3894.5391,99.7922
3895.5032,99.593
3896.4675,99.3418
3897.4316,99.1231
3898.3960,99.0063
3899.3601,99.0156
3900.3245,99.1271
3901.2886,99.2955
3902.2529,99.4756
3903.2170,99.6249
3904.1814,99.7124
3905.1455,99.7326
3906.1099,99.7014
3907.0740,99.6392
3908.0383,99.5643
3909.0024,99.4934
3909.9668,99.4381
3910.9309,99.4002
3911.8953,99.3725
3912.8594,99.3494
3913.8237,99.3383
3914.7878,99.3588
3915.7522,99.4257
3916.7163,99.5271
3917.6807,99.6223
3918.6448,99.6699
3919.6091,99.6554
3920.5732,99.594
3921.5376,99.5189
3922.5017,99.465
3923.4661,99.4514
3924.4302,99.47
3925.3945,99.4933
3926.3586,99.4958
3927.3230,99.4715
3928.2871,99.438
3929.2515,99.4275
3930.2156,99.467
3931.1799,99.5557
3932.1440,99.6623
3933.1084,99.7468
3934.0725,99.7826
3935.0369,99.7623
3936.0010,99.6924
3936.9653,99.5889
3937.9294,99.4757
3938.8938,99.3808
3939.8579,99.3296
3940.8223,99.3341
3941.7864,99.3851
3942.7507,99.4549
3943.7148,99.5137
3944.6792,99.5452
3945.6433,99.5526
3946.6077,99.5524
3947.5718,99.5621
3948.5361,99.5874
3949.5002,99.6177
3950.4646,99.6344
3951.4287,99.6243
3952.3931,99.5865
3953.3572,99.5324
3954.3215,99.4798
3955.2856,99.4457
3956.2500,99.44
3957.2141,99.4632
3958.1785,99.5092
3959.1426,99.5684
3960.1069,99.6297
3961.0710,99.6811
3962.0354,99.7112
3962.9995,99.7131
3963.9639,99.6875
3964.9280,99.6427
3965.8923,99.591
3966.8564,99.545
3967.8208,99.5135
3968.7849,99.5008
3969.7493,99.5071
3970.7134,99.5312
3971.6777,99.5699
3972.6418,99.6177
3973.6062,99.6653
3974.5703,99.7016
3975.5347,99.7184
3976.4988,99.7149
3977.4631,99.6976
3978.4272,99.6766
3979.3916,99.6601
3980.3557,99.6508
3981.3201,99.6458
3982.2842,99.6399
3983.2485,99.6296
3984.2126,99.6157
3985.1770,99.6025
3986.1411,99.5962
3987.1055,99.6015
3988.0696,99.6196
3989.0339,99.6465
3989.9980,99.674
3990.9624,99.6934
3991.9265,99.6994
3992.8909,99.6934
3993.8550,99.6825
3994.8193,99.6751
3995.7834,99.6761
3996.7478,99.6846
3997.7119,99.695
3998.6763,99.7016
3999.6404,99.7019
4000.6047,99.8553

##### Extended Information
[Comments]
Sample name
Comment
User
Division
Company,HANKYONG

[Detailed Information]
Creation date,4/24/2024 3:26 PM

Data array type,Linear data array
Horizontal axis,Wavenumber [cm-1]
Vertical axis,%T
Start,649.893 cm-1
End,4000.6 cm-1
Data interval,0.964233 cm-1
Data points,3476    

[Measurement Information]
Model Name,FT/IR-4700typeA
Serial Number,D056761788

Accessory,ATR PRO ONE
Accessory S/N,C174761809
Incident angle,45 deg

Measurement Date,4/24/2024 3:25 PM

Light Source,Standard
Detector,TGS
Accumulation,32
Resolution,4 cm-1
Zero Filling,On
Apodization,Cosine
Gain,Auto (4)
Aperture,Auto (7.1 mm)
Scanning Speed,Auto (2 mm/sec)
Filter,Auto (30000 Hz)

