TITLE,
DATA TYPE,INFRARED SPECTRUM
ORIGIN,JASCO
OWNER,
DATE,24/04/24
TIME,15:28:52
SPECTROMETER/DATA SYSTEM,
LOCALE,1033
RESOLUTION,
DELTAX,0.964233
XUNITS,1/CM
YUNITS,TRANSMITTANCE
FIRSTX,  649.8934
LASTX, 4000.6047
NPOINTS,    3476
FIRSTY,    99.49696
MAXY,   101.32850
MINY,    86.02730
XYDATA
649.8934,99.497
650.8576,99.6148
651.8218,99.7488
652.7861,99.8514
653.7503,99.8823
654.7145,99.8355
655.6788,99.742
656.6430,99.6501
657.6072,99.598
658.5715,99.5975
659.5357,99.6374
660.4999,99.6995
661.4642,99.7731
662.4284,99.8597
663.3926,99.9653
664.3569,100.091
665.3211,100.226
666.2853,100.338
667.2496,100.365
668.2138,100.261
669.1780,100.084
670.1423,99.959
671.1065,99.9352
672.0707,99.9834
673.0350,100.062
673.9992,100.14
674.9634,100.196
675.9277,100.222
676.8919,100.225
677.8561,100.218
678.8204,100.215
679.7846,100.222
680.7488,100.236
681.7131,100.251
682.6773,100.261
683.6415,100.266
684.6058,100.271
685.5700,100.283
686.5342,100.307
687.4985,100.341
688.4627,100.37
689.4269,100.378
690.3912,100.356
691.3554,100.306
692.3196,100.25
693.2839,100.212
694.2481,100.204
695.2123,100.217
696.1766,100.231
697.1408,100.225
698.1050,100.197
699.0693,100.156
700.0335,100.12
700.9977,100.101
701.9620,100.105
702.9262,100.123
703.8904,100.145
704.8547,100.159
705.8189,100.162
706.7831,100.157
707.7474,100.15
708.7116,100.17
709.6758,100.212
710.6401,100.256
711.6043,100.301
712.5685,100.345
713.5328,100.385
714.4970,100.414
715.4612,100.447
716.4255,100.436
717.3897,100.404
718.3539,100.358
719.3182,100.312
720.2824,100.281
721.2466,100.272
722.2109,100.283
723.1751,100.305
724.1393,100.326
725.1036,100.335
726.0678,100.326
727.0320,100.297
727.9963,100.25
728.9605,100.195
729.9247,100.142
730.8890,100.104
731.8532,100.086
732.8174,100.082
733.7817,100.075
734.7459,100.046
735.7101,99.9832
736.6744,99.891
737.6386,99.7897
738.6028,99.7054
739.5671,99.6567
740.5313,99.645
741.4955,99.6551
742.4598,99.6633
743.4240,99.6508
744.3882,99.611
745.3525,99.5496
746.3167,99.4791
747.2809,99.4114
748.2452,99.3535
749.2094,99.3075
750.1736,99.2721
751.1379,99.2445
752.1021,99.2211
753.0663,99.1984
754.0306,99.1732
754.9948,99.1431
755.9590,99.1069
756.9233,99.064
757.8875,99.0137
758.8517,98.956
759.8160,98.8927
760.7802,98.8282
761.7444,98.7694
762.7087,98.723
763.6729,98.6932
764.6371,98.6801
765.6014,98.6798
766.5656,98.6862
767.5298,98.6929
768.4941,98.6948
769.4583,98.689
770.4225,98.6751
771.3868,98.6555
772.3510,98.6334
773.3152,98.6121
774.2795,98.5929
775.2437,98.5752
776.2079,98.5586
777.1722,98.5435
778.1364,98.532
779.1006,98.5253
780.0649,98.5224
781.0291,98.5186
781.9933,98.5083
782.9576,98.4878
783.9218,98.4575
784.8860,98.4206
785.8503,98.38
786.8145,98.3342
787.7787,98.2781
788.7430,98.2057
789.7072,98.1147
790.6714,98.0092
791.6357,97.8985
792.5999,97.7938
793.5641,97.7034
794.5284,97.6305
795.4926,97.5732
796.4568,97.5265
797.4211,97.4848
798.3853,97.4438
799.3495,97.4013
800.3138,97.3567
801.2780,97.3098
802.2422,97.2596
803.2065,97.2037
804.1707,97.1396
805.1349,97.0675
806.0992,96.991
807.0634,96.917
808.0276,96.8526
808.9919,96.8018
809.9561,96.7639
810.9203,96.7357
811.8846,96.7137
812.8488,96.697
813.8130,96.6869
814.7773,96.685
815.7415,96.6908
816.7057,96.7026
817.6700,96.72
818.6342,96.7461
819.5984,96.788
820.5627,96.8535
821.5269,96.9476
822.4911,97.0693
823.4554,97.212
824.4196,97.3664
825.3839,97.5232
826.3481,97.6757
827.3123,97.8203
828.2766,97.9558
829.2408,98.0821
830.2050,98.1992
831.1693,98.3059
832.1335,98.3989
833.0977,98.474
834.0620,98.5266
835.0262,98.5537
835.9904,98.5542
836.9547,98.529
837.9189,98.4803
838.8831,98.4109
839.8474,98.3235
840.8116,98.2209
841.7758,98.1052
842.7401,97.9784
843.7043,97.8429
844.6685,97.7025
845.6328,97.5629
846.5970,97.4305
847.5612,97.3104
848.5255,97.2039
849.4897,97.1088
850.4539,97.0221
851.4182,96.9435
852.3824,96.8772
853.3466,96.8304
854.3109,96.8097
855.2751,96.8185
856.2393,96.8556
857.2036,96.9175
858.1678,97.0001
859.1320,97.0997
860.0963,97.212
861.0605,97.3309
862.0247,97.4484
862.9890,97.5565
863.9532,97.6499
864.9174,97.7274
865.8817,97.7921
866.8459,97.8492
867.8101,97.9029
868.7744,97.9538
869.7386,97.9983
870.7028,98.0314
871.6671,98.0506
872.6313,98.0608
873.5955,98.0737
874.5598,98.1044
875.5240,98.163
876.4882,98.2494
877.4525,98.3524
878.4167,98.4551
879.3809,98.5444
880.3452,98.6173
881.3094,98.6809
882.2736,98.7473
883.2379,98.826
884.2021,98.9208
885.1663,99.0306
886.1306,99.153
887.0948,99.2859
888.0590,99.4267
889.0233,99.569
889.9875,99.7019
890.9517,99.8262
891.9160,99.9297
892.8802,100.004
893.8444,100.058
894.8087,100.109
895.7729,100.168
896.7371,100.237
897.7014,100.311
898.6656,100.378
899.6298,100.426
900.5941,100.45
901.5583,100.453
902.5225,100.441
903.4868,100.424
904.4510,100.407
905.4152,100.394
906.3795,100.385
907.3437,100.377
908.3079,100.364
909.2722,100.344
910.2364,100.312
911.2006,100.27
912.1649,100.222
913.1291,100.174
914.0933,100.132
915.0576,100.1
916.0218,100.075
916.9860,100.056
917.9503,100.039
918.9145,100.025
919.8787,100.016
920.8430,100.013
921.8072,100.016
922.7714,100.026
923.7357,100.04
924.6999,100.058
925.6641,100.077
926.6284,100.097
927.5926,100.119
928.5568,100.144
929.5211,100.171
930.4853,100.202
931.4495,100.236
932.4138,100.268
933.3780,100.292
934.3422,100.302
935.3065,100.3
936.2707,100.289
937.2349,100.28
938.1992,100.28
939.1634,100.291
940.1276,100.31
941.0919,100.331
942.0561,100.349
943.0203,100.365
943.9846,100.381
944.9488,100.399
945.9130,100.418
946.8773,100.433
947.8415,100.441
948.8057,100.439
949.7700,100.428
950.7342,100.411
951.6984,100.392
952.6627,100.369
953.6269,100.338
954.5911,100.297
955.5554,100.248
956.5196,100.194
957.4838,100.142
958.4481,100.097
959.4123,100.056
960.3765,100.012
961.3408,99.9561
962.3050,99.8844
963.2692,99.7998
964.2335,99.7123
965.1977,99.6354
966.1619,99.5797
967.1262,99.5487
968.0904,99.5376
969.0546,99.5361
970.0189,99.5336
970.9831,99.5229
971.9473,99.5021
972.9116,99.4736
973.8758,99.4404
974.8400,99.4035
975.8043,99.3606
976.7685,99.3076
977.7327,99.2412
978.6970,99.1607
979.6612,99.0683
980.6254,98.968
981.5897,98.864
982.5539,98.7591
983.5181,98.655
984.4824,98.5518
985.4466,98.4484
986.4108,98.3428
987.3751,98.2324
988.3393,98.1147
989.3035,97.9882
990.2678,97.8521
991.2320,97.7057
992.1962,97.5482
993.1605,97.3783
994.1247,97.1954
995.0889,97.0006
996.0532,96.7969
997.0174,96.5884
997.9816,96.3784
998.9459,96.1689
999.9101,95.9592
1000.8743,95.7467
1001.8386,95.5274
1002.8028,95.297
1003.7670,95.0517
1004.7313,94.7904
1005.6955,94.5141
1006.6597,94.2262
1007.6240,93.93
1008.5882,93.6272
1009.5524,93.3167
1010.5167,92.9965
1011.4809,92.6652
1012.4451,92.3243
1013.4094,91.9777
1014.3736,91.6307
1015.3378,91.2871
1016.3021,90.9477
1017.2663,90.6098
1018.2305,90.2703
1019.1948,89.9284
1020.1590,89.5906
1021.1232,89.2718
1022.0875,88.9916
1023.0517,88.7665
1024.0160,88.6004
1024.9802,88.4798
1025.9445,88.3772
1026.9087,88.2652
1027.8729,88.1334
1028.8372,88
1029.8014,87.9089
1030.7656,87.9136
1031.7299,88.0573
1032.6941,88.3577
1033.6583,88.8043
1034.6226,89.3655
1035.5868,90.001
1036.5510,90.6745
1037.5153,91.3593
1038.4795,92.0383
1039.4437,92.6999
1040.4080,93.3336
1041.3722,93.9285
1042.3364,94.4743
1043.3007,94.9623
1044.2649,95.3881
1045.2291,95.7523
1046.1934,96.0601
1047.1576,96.3198
1048.1218,96.5398
1049.0861,96.727
1050.0503,96.887
1051.0145,97.0267
1051.9788,97.1564
1052.9430,97.2884
1053.9072,97.4317
1054.8715,97.5854
1055.8357,97.7355
1056.7999,97.8621
1057.7642,97.9526
1058.7284,98.0172
1059.6926,98.0913
1060.6569,98.2232
1061.6211,98.4502
1062.5853,98.7759
1063.5496,99.1624
1064.5138,99.5412
1065.4780,99.8416
1066.4423,100.023
1067.4065,100.092
1068.3707,100.092
1069.3350,100.079
1070.2992,100.091
1071.2634,100.141
1072.2277,100.217
1073.1919,100.278
1074.1561,100.309
1075.1204,100.313
1076.0846,100.283
1077.0488,100.22
1078.0131,100.123
1078.9773,99.9982
1079.9415,99.8531
1080.9058,99.6972
1081.8700,99.5391
1082.8342,99.3844
1083.7985,99.2344
1084.7627,99.0869
1085.7269,98.9374
1086.6912,98.7819
1087.6554,98.6193
1088.6196,98.453
1089.5839,98.2914
1090.5481,98.1448
1091.5123,98.0222
1092.4766,97.9276
1093.4408,97.8594
1094.4050,97.8121
1095.3693,97.7794
1096.3335,97.7562
1097.2977,97.738
1098.2620,97.7192
1099.2262,97.6919
1100.1904,97.6469
1101.1547,97.5768
1102.1189,97.4796
1103.0831,97.3594
1104.0474,97.2241
1105.0116,97.081
1105.9758,96.9339
1106.9401,96.7824
1107.9043,96.625
1108.8685,96.4619
1109.8328,96.2964
1110.7970,96.1332
1111.7612,95.975
1112.7255,95.8207
1113.6897,95.6656
1114.6539,95.5037
1115.6182,95.3313
1116.5824,95.149
1117.5466,94.962
1118.5109,94.779
1119.4751,94.6107
1120.4393,94.469
1121.4036,94.3651
1122.3678,94.3076
1123.3320,94.3004
1124.2963,94.3402
1125.2605,94.4174
1126.2247,94.5189
1127.1890,94.6324
1128.1532,94.75
1129.1174,94.8691
1130.0817,94.9901
1131.0459,95.1118
1132.0101,95.2288
1132.9744,95.3306
1133.9386,95.4059
1134.9028,95.4462
1135.8671,95.4503
1136.8313,95.4241
1137.7955,95.3776
1138.7598,95.3206
1139.7240,95.2595
1140.6882,95.1971
1141.6525,95.1338
1142.6167,95.0703
1143.5809,95.0084
1144.5452,94.9506
1145.5094,94.8987
1146.4736,94.853
1147.4379,94.813
1148.4021,94.7789
1149.3663,94.7522
1150.3306,94.7366
1151.2948,94.7366
1152.2590,94.7569
1153.2233,94.8011
1154.1875,94.8711
1155.1517,94.9663
1156.1160,95.0831
1157.0802,95.2155
1158.0444,95.3559
1159.0087,95.4978
1159.9729,95.6378
1160.9371,95.7766
1161.9014,95.9172
1162.8656,96.0621
1163.8298,96.2097
1164.7941,96.3539
1165.7583,96.4849
1166.7225,96.5934
1167.6868,96.6738
1168.6510,96.7256
1169.6152,96.7522
1170.5795,96.7583
1171.5437,96.7472
1172.5079,96.7202
1173.4722,96.6771
1174.4364,96.6173
1175.4006,96.5406
1176.3649,96.4469
1177.3291,96.3358
1178.2933,96.2059
1179.2576,96.0556
1180.2218,95.8837
1181.1860,95.6911
1182.1503,95.4811
1183.1145,95.2587
1184.0787,95.0295
1185.0430,94.7982
1186.0072,94.5665
1186.9714,94.3336
1187.9357,94.0971
1188.8999,93.8544
1189.8641,93.6047
1190.8284,93.3494
1191.7926,93.0907
1192.7568,92.8304
1193.7211,92.5681
1194.6853,92.3025
1195.6495,92.0325
1196.6138,91.7594
1197.5780,91.4869
1198.5422,91.2201
1199.5065,90.9193
1200.4707,90.6824
1201.4349,90.4618
1202.3992,90.2588
1203.3634,90.0749
1204.3276,89.9113
1205.2919,89.7689
1206.2561,89.6476
1207.2203,89.5473
1208.1846,89.4687
1209.1488,89.413
1210.1130,89.3811
1211.0773,89.3722
1212.0415,89.3827
1213.0057,89.4078
1213.9700,89.4432
1214.9342,89.4872
1215.8984,89.5405
1216.8627,89.6043
1217.8269,89.6783
1218.7911,89.7607
1219.7554,89.8485
1220.7196,89.9392
1221.6838,90.0318
1222.6481,90.1259
1223.6123,90.2205
1224.5765,90.3132
1225.5408,90.4004
1226.5050,90.4781
1227.4692,90.544
1228.4335,90.5976
1229.3977,90.6408
1230.3619,90.6764
1231.3262,90.7077
1232.2904,90.7369
1233.2546,90.7662
1234.2189,90.7981
1235.1831,90.8369
1236.1473,90.8878
1237.1116,90.9551
1238.0758,91.0382
1239.0400,91.1291
1240.0043,91.2134
1240.9685,91.2751
1241.9327,91.3031
1242.8970,91.2963
1243.8612,91.2629
1244.8254,91.2144
1245.7897,91.1579
1246.7539,91.0914
1247.7181,91.0045
1248.6824,90.8845
1249.6466,90.7221
1250.6108,90.5164
1251.5751,90.274
1252.5393,90.0062
1253.5035,89.7246
1254.4678,89.4381
1255.4320,89.1521
1256.3962,88.8688
1257.3605,88.5896
1258.3247,88.3168
1259.2889,88.0547
1260.2532,87.8092
1261.2174,87.5864
1262.1816,87.391
1263.1459,87.2258
1264.1101,87.0927
1265.0743,86.9939
1266.0386,86.9332
1267.0028,86.9157
1267.9670,86.9466
1268.9313,87.0294
1269.8955,87.1646
1270.8597,87.3488
1271.8240,87.5757
1272.7882,87.837
1273.7524,88.1247
1274.7167,88.4319
1275.6809,88.754
1276.6451,89.0874
1277.6094,89.4298
1278.5736,89.7781
1279.5378,90.1292
1280.5021,90.4791
1281.4663,90.824
1282.4305,91.1603
1283.3948,91.4861
1284.3590,91.8007
1285.3232,92.1042
1286.2875,92.3966
1287.2517,92.6769
1288.2159,92.9428
1289.1802,93.1921
1290.1444,93.4233
1291.1086,93.637
1292.0729,93.8348
1293.0371,94.0193
1294.0013,94.1924
1294.9656,94.3553
1295.9298,94.5083
1296.8940,94.6512
1297.8583,94.7833
1298.8225,94.904
1299.7867,95.0127
1300.7510,95.1092
1301.7152,95.195
1302.6794,95.2726
1303.6437,95.3454
1304.6079,95.4166
1305.5721,95.488
1306.5364,95.5585
1307.5006,95.6245
1308.4648,95.6821
1309.4291,95.7291
1310.3933,95.7663
1311.3575,95.7976
1312.3218,95.8276
1313.2860,95.8603
1314.2502,95.8975
1315.2145,95.9389
1316.1787,95.9838
1317.1429,96.0314
1318.1072,96.0811
1319.0714,96.1315
1320.0356,96.1813
1320.9999,96.2284
1321.9641,96.2716
1322.9283,96.3099
1323.8926,96.343
1324.8568,96.3713
1325.8210,96.3963
1326.7853,96.4198
1327.7495,96.4445
1328.7137,96.4725
1329.6780,96.5047
1330.6422,96.5405
1331.6064,96.5774
1332.5707,96.612
1333.5349,96.6418
1334.4991,96.6668
1335.4634,96.6912
1336.4276,96.722
1337.3918,96.7658
1338.3561,96.8231
1339.3203,96.8865
1340.2845,96.9472
1341.2488,97.001
1342.2130,97.048
1343.1772,97.089
1344.1415,97.1244
1345.1057,97.1537
1346.0699,97.1757
1347.0342,97.1881
1347.9984,97.189
1348.9626,97.1786
1349.9269,97.1597
1350.8911,97.1367
1351.8553,97.1141
1352.8196,97.0958
1353.7838,97.0836
1354.7480,97.0762
1355.7123,97.0695
1356.6765,97.0579
1357.6407,97.0377
1358.6050,97.0104
1359.5692,96.9845
1360.5334,96.9714
1361.4977,96.9778
1362.4619,97.0003
1363.4261,97.0304
1364.3904,97.062
1365.3546,97.0935
1366.3188,97.1258
1367.2831,97.1604
1368.2473,97.1993
1369.2115,97.244
1370.1758,97.2982
1371.1400,97.3703
1372.1042,97.4727
1373.0685,97.6137
1374.0327,97.7875
1374.9969,97.9724
1375.9612,98.1465
1376.9254,98.301
1377.8896,98.4398
1378.8539,98.5701
1379.8181,98.6934
1380.7823,98.8029
1381.7466,98.8872
1382.7108,98.939
1383.6750,98.9509
1384.6393,98.9455
1385.6035,98.9441
1386.5677,98.9643
1387.5320,99.0148
1388.4962,99.0947
1389.4604,99.195
1390.4247,99.3013
1391.3889,99.3985
1392.3531,99.4726
1393.3174,99.5082
1394.2816,99.4891
1395.2458,99.4116
1396.2101,99.298
1397.1743,99.188
1398.1385,99.1115
1399.1028,99.0719
1400.0670,99.0525
1401.0313,99.0321
1401.9955,98.9951
1402.9597,98.9341
1403.9240,98.8458
1404.8882,98.7281
1405.8524,98.5809
1406.8167,98.4066
1407.7809,98.2076
1408.7451,97.9823
1409.7094,97.7281
1410.6736,97.4475
1411.6378,97.1511
1412.6021,96.8527
1413.5663,96.5588
1414.5305,96.2641
1415.4948,95.9592
1416.4590,95.6402
1417.4232,95.3163
1418.3875,95.0123
1419.3517,94.7643
1420.3159,94.5949
1421.2802,94.492
1422.2444,94.4226
1423.2086,94.359
1424.1729,94.29
1425.1371,94.2182
1426.1013,94.1524
1427.0656,94.1038
1428.0298,94.0834
1428.9940,94.0977
1429.9583,94.1416
1430.9225,94.1972
1431.8867,94.2426
1432.8510,94.2644
1433.8152,94.2643
1434.7794,94.256
1435.7437,94.2489
1436.7079,94.236
1437.6721,94.2049
1438.6364,94.149
1439.6006,94.058
1440.5648,93.9158
1441.5291,93.7127
1442.4933,93.4532
1443.4575,93.1532
1444.4218,92.8311
1445.3860,92.5005
1446.3502,92.1729
1447.3145,91.8655
1448.2787,91.6054
1449.2429,91.4171
1450.2072,91.3028
1451.1714,91.2374
1452.1356,91.1855
1453.0999,91.1242
1454.0641,91.0578
1455.0283,91.014
1455.9926,91.004
1456.9568,90.975
1457.9210,90.8946
1458.8853,90.8313
1459.8495,90.8247
1460.8137,90.8485
1461.7780,90.8842
1462.7422,90.9587
1463.7064,91.1284
1464.6707,91.4266
1465.6349,91.8154
1466.5991,92.212
1467.5634,92.5567
1468.5276,92.8404
1469.4918,93.0975
1470.4561,93.3912
1471.4203,93.7817
1472.3845,94.2594
1473.3488,94.7119
1474.3130,95.0355
1475.2772,95.2351
1476.2415,95.3595
1477.2057,95.4322
1478.1699,95.4535
1479.1342,95.4181
1480.0984,95.3245
1481.0626,95.177
1482.0269,94.9847
1482.9911,94.7595
1483.9553,94.5125
1484.9196,94.2514
1485.8838,93.98
1486.8480,93.6949
1487.8123,93.3811
1488.7765,93.024
1489.7407,92.6494
1490.7050,92.3187
1491.6692,92.0574
1492.6334,91.8357
1493.5977,91.6104
1494.5619,91.3537
1495.5261,91.0561
1496.4904,90.7202
1497.4546,90.3635
1498.4188,90.0243
1499.3831,89.7359
1500.3473,89.4925
1501.3115,89.26
1502.2758,89.0066
1503.2400,88.7185
1504.2042,88.3971
1505.1685,88.0301
1506.1327,87.5463
1507.0969,86.9033
1508.0612,86.3289
1509.0254,86.057
1509.9896,86.0273
1510.9539,86.1033
1511.9181,86.2269
1512.8823,86.421
1513.8466,86.7533
1514.8108,87.2843
1515.7750,88.0098
1516.7393,88.8479
1517.7035,89.7059
1518.6677,90.5693
1519.6320,91.5102
1520.5962,92.588
1521.5604,93.7358
1522.5247,94.7893
1523.4889,95.6393
1524.4531,96.3038
1525.4174,96.8633
1526.3816,97.3703
1527.3458,97.8188
1528.3101,98.1765
1529.2743,98.431
1530.2385,98.6094
1531.2028,98.7669
1532.1670,98.9501
1533.1312,99.1516
1534.0955,99.3107
1535.0597,99.3729
1536.0239,99.3327
1536.9882,99.2327
1537.9524,99.1592
1538.9166,99.2472
1539.8809,99.5331
1540.8451,99.8456
1541.8093,99.9598
1542.7736,99.9264
1543.7378,99.8754
1544.7020,99.843
1545.6663,99.8192
1546.6305,99.7923
1547.5947,99.7579
1548.5590,99.7161
1549.5232,99.6679
1550.4874,99.6125
1551.4517,99.5457
1552.4159,99.4612
1553.3801,99.3538
1554.3444,99.2257
1555.3086,99.0976
1556.2728,99.0185
1557.2371,99.034
1558.2013,99.0725
1559.1655,98.988
1560.1298,98.8496
1561.0940,98.7794
1562.0582,98.7589
1563.0225,98.7281
1563.9867,98.6557
1564.9509,98.5427
1565.9152,98.4068
1566.8794,98.265
1567.8436,98.1191
1568.8079,97.9563
1569.7721,97.7726
1570.7363,97.5828
1571.7006,97.3986
1572.6648,97.2127
1573.6290,97.0098
1574.5933,96.7757
1575.5575,96.502
1576.5217,96.2025
1577.4860,95.9239
1578.4502,95.6987
1579.4144,95.508
1580.3787,95.3127
1581.3429,95.0914
1582.3071,94.8491
1583.2714,94.6064
1584.2356,94.3833
1585.1998,94.1872
1586.1641,94.0153
1587.1283,93.8631
1588.0925,93.7313
1589.0568,93.6239
1590.0210,93.5429
1590.9852,93.4858
1591.9495,93.4477
1592.9137,93.4238
1593.8779,93.4104
1594.8422,93.4042
1595.8064,93.4025
1596.7706,93.4054
1597.7349,93.4159
1598.6991,93.4384
1599.6633,93.4764
1600.6276,93.5308
1601.5918,93.5999
1602.5560,93.6803
1603.5203,93.7689
1604.4845,93.863
1605.4487,93.9616
1606.4130,94.066
1607.3772,94.1793
1608.3414,94.3034
1609.3057,94.4333
1610.2699,94.5573
1611.2341,94.662
1612.1984,94.7429
1613.1626,94.8139
1614.1268,94.9122
1615.0911,95.0822
1616.0553,95.3314
1617.0195,95.6035
1617.9838,95.834
1618.9480,96.0081
1619.9122,96.1474
1620.8765,96.2829
1621.8407,96.4398
1622.8049,96.6214
1623.7692,96.8018
1624.7334,96.9507
1625.6976,97.0629
1626.6619,97.1557
1627.6261,97.2446
1628.5903,97.3281
1629.5546,97.3902
1630.5188,97.4144
1631.4830,97.3968
1632.4473,97.3555
1633.4115,97.3317
1634.3757,97.3694
1635.3400,97.4624
1636.3042,97.5411
1637.2684,97.5677
1638.2327,97.5671
1639.1969,97.5577
1640.1611,97.5331
1641.1254,97.4825
1642.0896,97.4041
1643.0538,97.3102
1644.0181,97.2284
1644.9823,97.1863
1645.9465,97.1779
1646.9108,97.1564
1647.8750,97.0889
1648.8392,96.9818
1649.8035,96.8524
1650.7677,96.7281
1651.7319,96.6502
1652.6962,96.6195
1653.6604,96.5649
1654.6246,96.4864
1655.5889,96.4462
1656.5531,96.4352
1657.5173,96.4116
1658.4816,96.3562
1659.4458,96.2762
1660.4100,96.1905
1661.3743,96.1106
1662.3385,96.0338
1663.3027,95.9555
1664.2670,95.8771
1665.2312,95.8006
1666.1954,95.7285
1667.1597,95.6687
1668.1239,95.6297
1669.0881,95.6062
1670.0524,95.5779
1671.0166,95.5324
1671.9808,95.4744
1672.9451,95.4134
1673.9093,95.3577
1674.8735,95.316
1675.8378,95.2945
1676.8020,95.2924
1677.7662,95.2982
1678.7305,95.295
1679.6947,95.2718
1680.6589,95.2363
1681.6232,95.2157
1682.5874,95.2337
1683.5516,95.2683
1684.5159,95.2728
1685.4801,95.254
1686.4443,95.2451
1687.4086,95.2476
1688.3728,95.2432
1689.3370,95.2172
1690.3013,95.1642
1691.2655,95.0864
1692.2297,94.9904
1693.1940,94.887
1694.1582,94.7893
1695.1224,94.7091
1696.0867,94.6487
1697.0509,94.5961
1698.0151,94.5323
1698.9794,94.4511
1699.9436,94.3725
1700.9078,94.326
1701.8721,94.3215
1702.8363,94.3444
1703.8005,94.371
1704.7648,94.3823
1705.7290,94.371
1706.6932,94.342
1707.6575,94.3087
1708.6217,94.283
1709.5859,94.2678
1710.5502,94.2585
1711.5144,94.2494
1712.4786,94.2401
1713.4429,94.2403
1714.4071,94.2717
1715.3713,94.357
1716.3356,94.49
1717.2998,94.626
1718.2640,94.7391
1719.2283,94.8464
1720.1925,94.9653
1721.1567,95.0963
1722.1210,95.2334
1723.0852,95.3708
1724.0494,95.5043
1725.0137,95.6324
1725.9779,95.7573
1726.9421,95.8818
1727.9064,96.0048
1728.8706,96.1212
1729.8348,96.2308
1730.7991,96.3482
1731.7633,96.5034
1732.7275,96.7158
1733.6918,96.9597
1734.6560,97.1831
1735.6202,97.3628
1736.5845,97.5079
1737.5487,97.6354
1738.5129,97.761
1739.4772,97.8938
1740.4414,98.0305
1741.4056,98.1573
1742.3699,98.263
1743.3341,98.3469
1744.2983,98.4147
1745.2626,98.4723
1746.2268,98.5243
1747.1910,98.5759
1748.1553,98.6306
1749.1195,98.6861
1750.0837,98.7356
1751.0480,98.7776
1752.0122,98.8162
1752.9764,98.8542
1753.9407,98.8907
1754.9049,98.9244
1755.8691,98.9537
1756.8334,98.9761
1757.7976,98.9905
1758.7618,98.9997
1759.7261,99.0104
1760.6903,99.0287
1761.6545,99.0543
1762.6188,99.0809
1763.5830,99.1015
1764.5472,99.1132
1765.5115,99.1178
1766.4757,99.1205
1767.4399,99.129
1768.4042,99.1524
1769.3684,99.1983
1770.3326,99.2678
1771.2969,99.3475
1772.2611,99.4127
1773.2253,99.4477
1774.1896,99.4579
1775.1538,99.4574
1776.1180,99.4563
1777.0823,99.4605
1778.0465,99.4744
1779.0107,99.4985
1779.9750,99.5277
1780.9392,99.5534
1781.9034,99.5709
1782.8677,99.5821
1783.8319,99.5914
1784.7961,99.6006
1785.7604,99.6067
1786.7246,99.6051
1787.6888,99.5945
1788.6531,99.5813
1789.6173,99.58
1790.5815,99.6048
1791.5458,99.6536
1792.5100,99.7035
1793.4742,99.7328
1794.4385,99.7393
1795.4027,99.732
1796.3669,99.7198
1797.3312,99.7099
1798.2954,99.7092
1799.2596,99.7199
1800.2239,99.737
1801.1881,99.7515
1802.1523,99.7623
1803.1166,99.7667
1804.0808,99.764
1805.0450,99.7569
1806.0093,99.7493
1806.9735,99.7457
1807.9377,99.7511
1808.9020,99.7676
1809.8662,99.792
1810.8304,99.8163
1811.7947,99.833
1812.7589,99.8392
1813.7231,99.8374
1814.6874,99.833
1815.6516,99.8308
1816.6158,99.8327
1817.5801,99.8365
1818.5443,99.8379
1819.5085,99.8335
1820.4728,99.8239
1821.4370,99.8131
1822.4012,99.8062
1823.3655,99.8061
1824.3297,99.8113
1825.2939,99.8192
1826.2582,99.8291
1827.2224,99.8436
1828.1866,99.8644
1829.1509,99.8869
1830.1151,99.9015
1831.0793,99.9018
1832.0436,99.8906
1833.0078,99.8754
1833.9720,99.863
1834.9363,99.8576
1835.9005,99.8585
1836.8647,99.8597
1837.8290,99.853
1838.7932,99.8339
1839.7574,99.8051
1840.7217,99.7766
1841.6859,99.7627
1842.6501,99.7745
1843.6144,99.8089
1844.5786,99.8472
1845.5428,99.8718
1846.5071,99.8792
1847.4713,99.8755
1848.4355,99.867
1849.3998,99.8578
1850.3640,99.8493
1851.3282,99.8417
1852.2925,99.8345
1853.2567,99.8274
1854.2209,99.821
1855.1852,99.8162
1856.1494,99.8133
1857.1136,99.8117
1858.0779,99.8102
1859.0421,99.8081
1860.0063,99.8045
1860.9706,99.7993
1861.9348,99.7921
1862.8990,99.7832
1863.8633,99.7744
1864.8275,99.7706
1865.7917,99.7787
1866.7560,99.8027
1867.7202,99.8366
1868.6844,99.8643
1869.6487,99.8735
1870.6129,99.8657
1871.5771,99.8502
1872.5414,99.8344
1873.5056,99.822
1874.4698,99.8142
1875.4341,99.8103
1876.3983,99.8085
1877.3625,99.8069
1878.3268,99.805
1879.2910,99.8042
1880.2552,99.8057
1881.2195,99.8091
1882.1837,99.8122
1883.1479,99.8124
1884.1122,99.8086
1885.0764,99.8032
1886.0406,99.8007
1887.0049,99.8053
1887.9691,99.8178
1888.9333,99.8338
1889.8976,99.8467
1890.8618,99.8526
1891.8260,99.8528
1892.7903,99.8514
1893.7545,99.8523
1894.7188,99.8563
1895.6830,99.861
1896.6472,99.8627
1897.6115,99.8597
1898.5757,99.8535
1899.5399,99.8474
1900.5042,99.8442
1901.4684,99.8452
1902.4326,99.849
1903.3969,99.8532
1904.3611,99.8561
1905.3253,99.8576
1906.2896,99.8599
1907.2538,99.8653
1908.2180,99.8748
1909.1823,99.886
1910.1465,99.8941
1911.1107,99.895
1912.0750,99.8877
1913.0392,99.8748
1914.0034,99.8619
1914.9677,99.8545
1915.9319,99.8555
1916.8961,99.863
1917.8604,99.8716
1918.8246,99.8776
1919.7888,99.8816
1920.7531,99.8872
1921.7173,99.8966
1922.6815,99.9075
1923.6458,99.9144
1924.6100,99.9127
1925.5742,99.9025
1926.5385,99.8883
1927.5027,99.8757
1928.4669,99.8683
1929.4312,99.8662
1930.3954,99.867
1931.3596,99.8678
1932.3239,99.8677
1933.2881,99.8676
1934.2523,99.8679
1935.2166,99.8678
1936.1808,99.8649
1937.1450,99.8578
1938.1093,99.848
1939.0735,99.8398
1940.0377,99.8382
1941.0020,99.8459
1941.9662,99.8603
1942.9304,99.8749
1943.8947,99.8832
1944.8589,99.8831
1945.8231,99.8765
1946.7874,99.8668
1947.7516,99.8569
1948.7158,99.848
1949.6801,99.8406
1950.6443,99.8346
1951.6085,99.8303
1952.5728,99.8275
1953.5370,99.8258
1954.5012,99.8242
1955.4655,99.8217
1956.4297,99.8185
1957.3939,99.8151
1958.3582,99.8122
1959.3224,99.8097
1960.2866,99.8068
1961.2509,99.803
1962.2151,99.7989
1963.1793,99.7964
1964.1436,99.7977
1965.1078,99.8031
1966.0720,99.8104
1967.0363,99.8153
1968.0005,99.8145
1968.9647,99.808
1969.9290,99.7989
1970.8932,99.7913
1971.8574,99.7876
1972.8217,99.7875
1973.7859,99.7888
1974.7501,99.7889
1975.7144,99.7868
1976.6786,99.7831
1977.6428,99.7796
1978.6071,99.777
1979.5713,99.7748
1980.5355,99.7715
1981.4998,99.7662
1982.4640,99.7595
1983.4282,99.7529
1984.3925,99.7484
1985.3567,99.7466
1986.3209,99.7473
1987.2852,99.7497
1988.2494,99.7532
1989.2136,99.7579
1990.1779,99.763
1991.1421,99.767
1992.1063,99.7678
1993.0706,99.7641
1994.0348,99.757
1994.9990,99.7488
1995.9633,99.7424
1996.9275,99.7391
1997.8917,99.739
1998.8560,99.7403
1999.8202,99.741
2000.7844,99.7398
2001.7487,99.7367
2002.7129,99.7326
2003.6771,99.729
2004.6414,99.7266
2005.6056,99.7256
2006.5698,99.7253
2007.5341,99.7241
2008.4983,99.7206
2009.4625,99.7139
2010.4268,99.7046
2011.3910,99.6946
2012.3552,99.6872
2013.3195,99.685
2014.2837,99.6891
2015.2479,99.6983
2016.2122,99.7089
2017.1764,99.7165
2018.1406,99.7179
2019.1049,99.7131
2020.0691,99.7046
2021.0333,99.6959
2021.9976,99.6898
2022.9618,99.6871
2023.9260,99.6861
2024.8903,99.6843
2025.8545,99.6796
2026.8187,99.6716
2027.7830,99.6621
2028.7472,99.6539
2029.7114,99.6491
2030.6757,99.6486
2031.6399,99.6516
2032.6041,99.6561
2033.5684,99.6601
2034.5326,99.6621
2035.4968,99.6617
2036.4611,99.6592
2037.4253,99.6553
2038.3895,99.6508
2039.3538,99.6462
2040.3180,99.6423
2041.2822,99.6392
2042.2465,99.6371
2043.2107,99.6356
2044.1749,99.6341
2045.1392,99.6317
2046.1034,99.6278
2047.0676,99.6221
2048.0320,99.6155
2048.9961,99.6095
2049.9604,99.6056
2050.9246,99.6045
2051.8889,99.6056
2052.8530,99.607
2053.8174,99.6069
2054.7815,99.6042
2055.7458,99.5996
2056.7100,99.5947
2057.6743,99.5912
2058.6384,99.5903
2059.6028,99.592
2060.5669,99.5956
2061.5313,99.6005
2062.4954,99.6057
2063.4597,99.6105
2064.4238,99.6133
2065.3882,99.6132
2066.3523,99.6099
2067.3167,99.6044
2068.2808,99.5989
2069.2451,99.5959
2070.2092,99.5965
2071.1736,99.5999
2072.1377,99.6044
2073.1021,99.6078
2074.0662,99.6089
2075.0305,99.608
2075.9946,99.6063
2076.9590,99.6049
2077.9231,99.6042
2078.8875,99.6042
2079.8516,99.6043
2080.8159,99.6045
2081.7800,99.6054
2082.7444,99.6077
2083.7085,99.6117
2084.6729,99.617
2085.6370,99.6226
2086.6013,99.6271
2087.5654,99.6302
2088.5298,99.6318
2089.4939,99.6324
2090.4583,99.6327
2091.4224,99.6326
2092.3867,99.632
2093.3508,99.6307
2094.3152,99.6288
2095.2793,99.6264
2096.2437,99.6234
2097.2078,99.6198
2098.1721,99.6161
2099.1362,99.6134
2100.1006,99.6134
2101.0647,99.6171
2102.0291,99.6242
2102.9932,99.6325
2103.9575,99.6386
2104.9216,99.6402
2105.8860,99.6371
2106.8501,99.6312
2107.8145,99.6257
2108.7786,99.6233
2109.7429,99.6244
2110.7070,99.6279
2111.6714,99.6315
2112.6355,99.633
2113.5999,99.6314
2114.5640,99.6266
2115.5283,99.6202
2116.4924,99.6139
2117.4568,99.6097
2118.4209,99.6086
2119.3853,99.6105
2120.3494,99.6139
2121.3137,99.6166
2122.2778,99.6171
2123.2422,99.6149
2124.2063,99.611
2125.1707,99.607
2126.1348,99.6044
2127.0991,99.6036
2128.0632,99.6044
2129.0276,99.6058
2129.9917,99.607
2130.9561,99.6075
2131.9202,99.6076
2132.8845,99.608
2133.8486,99.6095
2134.8130,99.612
2135.7771,99.6143
2136.7415,99.615
2137.7056,99.6126
2138.6699,99.6072
2139.6340,99.5997
2140.5984,99.5923
2141.5625,99.5865
2142.5269,99.5832
2143.4910,99.5821
2144.4553,99.5825
2145.4194,99.5839
2146.3838,99.586
2147.3479,99.5885
2148.3123,99.5906
2149.2764,99.5916
2150.2407,99.5913
2151.2048,99.59
2152.1692,99.5885
2153.1333,99.5876
2154.0977,99.5874
2155.0618,99.5877
2156.0261,99.588
2156.9902,99.588
2157.9546,99.5877
2158.9187,99.5873
2159.8831,99.5864
2160.8472,99.5848
2161.8115,99.5823
2162.7756,99.5796
2163.7400,99.5776
2164.7041,99.5773
2165.6685,99.5789
2166.6326,99.5818
2167.5969,99.5847
2168.5610,99.5861
2169.5254,99.5852
2170.4895,99.5818
2171.4539,99.5768
2172.4180,99.5712
2173.3823,99.5664
2174.3464,99.5636
2175.3108,99.5633
2176.2749,99.5653
2177.2393,99.5688
2178.2034,99.5726
2179.1677,99.5759
2180.1318,99.5784
2181.0962,99.5803
2182.0603,99.5821
2183.0247,99.5836
2183.9888,99.5841
2184.9531,99.5828
2185.9172,99.5792
2186.8816,99.574
2187.8457,99.5688
2188.8101,99.5655
2189.7742,99.5654
2190.7385,99.5686
2191.7026,99.5739
2192.6670,99.5793
2193.6311,99.5831
2194.5955,99.5846
2195.5596,99.5837
2196.5239,99.5812
2197.4880,99.5783
2198.4524,99.5756
2199.4165,99.5734
2200.3809,99.5718
2201.3450,99.5706
2202.3093,99.5696
2203.2734,99.5683
2204.2378,99.5663
2205.2019,99.5635
2206.1663,99.5602
2207.1304,99.5572
2208.0947,99.5558
2209.0588,99.5565
2210.0232,99.5588
2210.9873,99.5616
2211.9517,99.5631
2212.9158,99.5621
2213.8801,99.5586
2214.8442,99.5535
2215.8086,99.5481
2216.7727,99.5437
2217.7371,99.5411
2218.7012,99.5403
2219.6655,99.5407
2220.6296,99.5413
2221.5940,99.5407
2222.5581,99.5379
2223.5225,99.5326
2224.4866,99.5256
2225.4509,99.5185
2226.4150,99.5131
2227.3794,99.5102
2228.3435,99.5094
2229.3079,99.5094
2230.2720,99.5092
2231.2363,99.5086
2232.2004,99.5083
2233.1648,99.509
2234.1289,99.5108
2235.0933,99.5123
2236.0574,99.5117
2237.0217,99.5073
2237.9858,99.4992
2238.9502,99.4886
2239.9143,99.4776
2240.8787,99.4681
2241.8428,99.461
2242.8071,99.4562
2243.7712,99.4529
2244.7356,99.45
2245.6997,99.4465
2246.6641,99.4418
2247.6282,99.4357
2248.5925,99.4279
2249.5566,99.419
2250.5210,99.4092
2251.4851,99.3993
2252.4495,99.3895
2253.4136,99.3798
2254.3779,99.3696
2255.3420,99.3585
2256.3064,99.3461
2257.2705,99.3331
2258.2349,99.3204
2259.1990,99.3097
2260.1633,99.3018
2261.1274,99.2968
2262.0918,99.294
2263.0559,99.2914
2264.0203,99.2874
2264.9844,99.2811
2265.9487,99.2728
2266.9128,99.2635
2267.8772,99.2541
2268.8413,99.2452
2269.8057,99.2365
2270.7698,99.2281
2271.7341,99.2208
2272.6982,99.2163
2273.6626,99.2165
2274.6267,99.2218
2275.5911,99.2309
2276.5552,99.2407
2277.5195,99.2479
2278.4836,99.251
2279.4480,99.2501
2280.4121,99.2468
2281.3765,99.2417
2282.3406,99.2341
2283.3049,99.2215
2284.2690,99.2014
2285.2334,99.1724
2286.1975,99.1355
2287.1619,99.0936
2288.1260,99.05
2289.0903,99.0067
2290.0544,98.9643
2291.0188,98.9222
2291.9829,98.8799
2292.9473,98.8379
2293.9114,98.7972
2294.8757,98.7587
2295.8398,98.7223
2296.8042,98.6875
2297.7683,98.6537
2298.7327,98.6215
2299.6968,98.5921
2300.6611,98.5661
2301.6252,98.542
2302.5896,98.5151
2303.5537,98.4795
2304.5181,98.4305
2305.4822,98.3677
2306.4465,98.2967
2307.4106,98.2273
2308.3750,98.1699
2309.3391,98.1311
2310.3035,98.1106
2311.2676,98.1008
2312.2319,98.0913
2313.1960,98.0732
2314.1604,98.0431
2315.1245,98.004
2316.0889,97.9635
2317.0530,97.93
2318.0173,97.9097
2318.9814,97.9023
2319.9458,97.8994
2320.9099,97.8867
2321.8743,97.8514
2322.8384,97.7916
2323.8027,97.7215
2324.7668,97.666
2325.7312,97.6493
2326.6953,97.6828
2327.6597,97.7578
2328.6238,97.848
2329.5881,97.9202
2330.5522,97.9497
2331.5166,97.9322
2332.4807,97.8832
2333.4451,97.827
2334.4092,97.7849
2335.3735,97.7682
2336.3376,97.7776
2337.3020,97.8052
2338.2661,97.8393
2339.2305,97.8693
2340.1946,97.8906
2341.1589,97.9054
2342.1230,97.9172
2343.0874,97.9207
2344.0515,97.898
2345.0159,97.8334
2345.9800,97.7316
2346.9443,97.6168
2347.9084,97.5179
2348.8728,97.4585
2349.8369,97.4556
2350.8013,97.522
2351.7654,97.6686
2352.7297,97.9027
2353.6938,98.2189
2354.6582,98.5896
2355.6223,98.9727
2356.5867,99.3349
2357.5508,99.6603
2358.5151,99.936
2359.4792,100.142
2360.4436,100.254
2361.4077,100.262
2362.3721,100.161
2363.3362,99.9607
2364.3005,99.6843
2365.2646,99.366
2366.2290,99.0448
2367.1931,98.7551
2368.1575,98.5177
2369.1216,98.3406
2370.0859,98.2232
2371.0500,98.1608
2372.0144,98.1464
2372.9785,98.171
2373.9429,98.2237
2374.9070,98.2929
2375.8713,98.3682
2376.8354,98.4423
2377.7998,98.512
2378.7639,98.5778
2379.7283,98.6423
2380.6924,98.7079
2381.6567,98.776
2382.6208,98.846
2383.5852,98.9159
2384.5493,98.9828
2385.5137,99.0436
2386.4778,99.096
2387.4421,99.1382
2388.4063,99.1696
2389.3706,99.1903
2390.3347,99.2018
2391.2991,99.2068
2392.2632,99.2092
2393.2275,99.2127
2394.1917,99.2196
2395.1560,99.2299
2396.1201,99.2411
2397.0845,99.2494
2398.0486,99.2517
2399.0129,99.2476
2399.9771,99.2398
2400.9414,99.2324
2401.9055,99.2293
2402.8699,99.2317
2403.8340,99.2382
2404.7983,99.2459
2405.7625,99.2521
2406.7268,99.256
2407.6909,99.2579
2408.6553,99.2585
2409.6194,99.2582
2410.5837,99.2566
2411.5479,99.2535
2412.5122,99.2495
2413.4763,99.246
2414.4407,99.2445
2415.4048,99.246
2416.3691,99.2503
2417.3333,99.2568
2418.2976,99.2643
2419.2617,99.2718
2420.2261,99.2779
2421.1902,99.2815
2422.1545,99.2815
2423.1187,99.2782
2424.0830,99.2729
2425.0471,99.2676
2426.0115,99.2642
2426.9756,99.2633
2427.9399,99.2645
2428.9041,99.2664
2429.8684,99.2681
2430.8325,99.2691
2431.7969,99.2697
2432.7610,99.2709
2433.7253,99.2732
2434.6895,99.2766
2435.6538,99.2807
2436.6179,99.2847
2437.5823,99.2876
2438.5464,99.2896
2439.5107,99.2912
2440.4749,99.2935
2441.4392,99.2972
2442.4033,99.3018
2443.3677,99.3059
2444.3318,99.308
2445.2961,99.3077
2446.2603,99.3059
2447.2246,99.3047
2448.1887,99.3062
2449.1531,99.3109
2450.1172,99.3177
2451.0815,99.3243
2452.0457,99.3283
2453.0100,99.3286
2453.9741,99.3255
2454.9385,99.3202
2455.9026,99.3145
2456.8669,99.3099
2457.8311,99.3075
2458.7954,99.3079
2459.7595,99.311
2460.7239,99.3162
2461.6880,99.322
2462.6523,99.3269
2463.6165,99.33
2464.5808,99.331
2465.5449,99.3305
2466.5093,99.3299
2467.4734,99.3304
2468.4377,99.3325
2469.4019,99.3362
2470.3662,99.3404
2471.3303,99.3442
2472.2947,99.3466
2473.2588,99.3479
2474.2231,99.349
2475.1873,99.3508
2476.1516,99.354
2477.1157,99.3583
2478.0801,99.3621
2479.0442,99.3642
2480.0085,99.3637
2480.9727,99.3615
2481.9370,99.3593
2482.9011,99.3589
2483.8655,99.3611
2484.8296,99.3658
2485.7939,99.3718
2486.7581,99.3782
2487.7224,99.3842
2488.6865,99.389
2489.6509,99.3919
2490.6150,99.3922
2491.5793,99.3896
2492.5435,99.3852
2493.5078,99.3808
2494.4719,99.3783
2495.4363,99.3783
2496.4004,99.3796
2497.3647,99.3806
2498.3289,99.38
2499.2932,99.3785
2500.2573,99.378
2501.2217,99.3802
2502.1858,99.385
2503.1501,99.3903
2504.1143,99.3936
2505.0786,99.3935
2506.0427,99.3911
2507.0071,99.3894
2507.9712,99.3907
2508.9355,99.3955
2509.8997,99.4015
2510.8640,99.4058
2511.8281,99.4066
2512.7925,99.4042
2513.7566,99.4008
2514.7209,99.3986
2515.6851,99.3988
2516.6494,99.4012
2517.6135,99.4051
2518.5779,99.41
2519.5420,99.4158
2520.5063,99.4221
2521.4705,99.4274
2522.4348,99.4302
2523.3989,99.429
2524.3633,99.4243
2525.3274,99.4182
2526.2917,99.4137
2527.2559,99.4133
2528.2202,99.4178
2529.1843,99.426
2530.1487,99.4355
2531.1128,99.4438
2532.0771,99.4492
2533.0413,99.4515
2534.0056,99.4515
2534.9697,99.4505
2535.9341,99.4497
2536.8982,99.4498
2537.8625,99.4509
2538.8267,99.4527
2539.7910,99.4553
2540.7551,99.459
2541.7195,99.4642
2542.6836,99.4704
2543.6479,99.477
2544.6121,99.4829
2545.5764,99.4877
2546.5405,99.4918
2547.5049,99.4958
2548.4690,99.4999
2549.4333,99.503
2550.3975,99.5034
2551.3618,99.5
2552.3259,99.4933
2553.2903,99.4861
2554.2544,99.4819
2555.2188,99.4833
2556.1829,99.4903
2557.1472,99.5009
2558.1113,99.5117
2559.0757,99.5201
2560.0398,99.5251
2561.0042,99.5277
2561.9683,99.5289
2562.9326,99.5298
2563.8967,99.5304
2564.8611,99.5309
2565.8252,99.5317
2566.7896,99.5335
2567.7537,99.5371
2568.7180,99.5423
2569.6821,99.548
2570.6465,99.5526
2571.6106,99.5548
2572.5750,99.5545
2573.5391,99.5527
2574.5034,99.5512
2575.4675,99.5515
2576.4319,99.5544
2577.3960,99.5594
2578.3604,99.5655
2579.3245,99.5712
2580.2888,99.5755
2581.2529,99.5777
2582.2173,99.5779
2583.1814,99.5768
2584.1458,99.5754
2585.1099,99.5745
2586.0742,99.5749
2587.0383,99.5771
2588.0027,99.5812
2588.9668,99.5866
2589.9312,99.5925
2590.8953,99.5974
2591.8596,99.6004
2592.8237,99.6011
2593.7881,99.6005
2594.7522,99.6005
2595.7166,99.6031
2596.6807,99.6092
2597.6450,99.6181
2598.6091,99.6275
2599.5735,99.635
2600.5376,99.639
2601.5020,99.6399
2602.4661,99.6395
2603.4304,99.64
2604.3945,99.6427
2605.3589,99.6471
2606.3230,99.6514
2607.2874,99.6538
2608.2515,99.6535
2609.2158,99.6514
2610.1799,99.6495
2611.1443,99.6498
2612.1084,99.6531
2613.0728,99.6581
2614.0369,99.6626
2615.0012,99.6642
2615.9653,99.6618
2616.9297,99.6566
2617.8938,99.6511
2618.8582,99.6482
2619.8223,99.6497
2620.7866,99.6555
2621.7507,99.6637
2622.7151,99.6721
2623.6792,99.6786
2624.6436,99.6822
2625.6077,99.683
2626.5720,99.682
2627.5361,99.6807
2628.5005,99.6805
2629.4646,99.6824
2630.4290,99.6861
2631.3931,99.6908
2632.3574,99.6951
2633.3215,99.6977
2634.2859,99.6981
2635.2500,99.6973
2636.2144,99.6966
2637.1785,99.6978
2638.1428,99.7023
2639.1069,99.7103
2640.0713,99.7207
2641.0354,99.7317
2641.9998,99.741
2642.9639,99.7469
2643.9282,99.7488
2644.8923,99.7477
2645.8567,99.7456
2646.8208,99.7448
2647.7852,99.7465
2648.7493,99.7504
2649.7136,99.7551
2650.6777,99.7586
2651.6421,99.7599
2652.6062,99.7587
2653.5706,99.756
2654.5347,99.7531
2655.4990,99.7512
2656.4631,99.7511
2657.4275,99.753
2658.3916,99.7564
2659.3560,99.7607
2660.3201,99.7652
2661.2844,99.7696
2662.2485,99.7739
2663.2129,99.7779
2664.1770,99.7814
2665.1414,99.7841
2666.1055,99.7857
2667.0698,99.7868
2668.0339,99.7884
2668.9983,99.7915
2669.9624,99.7961
2670.9268,99.8011
2671.8909,99.8049
2672.8552,99.8064
2673.8193,99.8057
2674.7837,99.8038
2675.7478,99.8017
2676.7122,99.7998
2677.6763,99.798
2678.6406,99.7961
2679.6047,99.7947
2680.5691,99.7948
2681.5332,99.7966
2682.4976,99.7991
2683.4617,99.8002
2684.4260,99.7985
2685.3901,99.794
2686.3545,99.789
2687.3186,99.7863
2688.2830,99.7878
2689.2471,99.7933
2690.2114,99.8002
2691.1755,99.8052
2692.1399,99.8061
2693.1040,99.8025
2694.0684,99.7963
2695.0325,99.7901
2695.9968,99.7865
2696.9609,99.7872
2697.9253,99.7916
2698.8894,99.7979
2699.8538,99.8031
2700.8179,99.8046
2701.7822,99.8013
2702.7463,99.794
2703.7107,99.7851
2704.6748,99.7774
2705.6392,99.7723
2706.6033,99.7697
2707.5676,99.7679
2708.5317,99.7654
2709.4961,99.7614
2710.4602,99.7567
2711.4246,99.753
2712.3887,99.7516
2713.3530,99.7534
2714.3171,99.7581
2715.2815,99.7652
2716.2456,99.7737
2717.2100,99.7821
2718.1741,99.7888
2719.1384,99.7924
2720.1025,99.7916
2721.0669,99.7867
2722.0310,99.7782
2722.9954,99.7678
2723.9595,99.7567
2724.9238,99.7463
2725.8879,99.738
2726.8523,99.7333
2727.8164,99.733
2728.7808,99.7372
2729.7449,99.7444
2730.7092,99.7523
2731.6733,99.7587
2732.6377,99.7627
2733.6018,99.7644
2734.5662,99.7649
2735.5303,99.7649
2736.4946,99.7647
2737.4587,99.7643
2738.4231,99.7642
2739.3872,99.7657
2740.3516,99.77
2741.3157,99.7778
2742.2800,99.788
2743.2441,99.7985
2744.2085,99.8068
2745.1726,99.8114
2746.1370,99.8123
2747.1011,99.8109
2748.0654,99.809
2749.0295,99.8087
2749.9939,99.8111
2750.9580,99.8165
2751.9224,99.8243
2752.8865,99.8329
2753.8508,99.8403
2754.8149,99.8449
2755.7793,99.846
2756.7434,99.8442
2757.7078,99.8416
2758.6719,99.8405
2759.6362,99.8429
2760.6003,99.849
2761.5647,99.8577
2762.5288,99.8665
2763.4932,99.8729
2764.4573,99.8754
2765.4216,99.8744
2766.3857,99.8715
2767.3501,99.8685
2768.3142,99.8666
2769.2786,99.8649
2770.2427,99.8621
2771.2070,99.8568
2772.1711,99.8492
2773.1355,99.8411
2774.0996,99.8347
2775.0640,99.8316
2776.0281,99.8315
2776.9924,99.8327
2777.9565,99.8332
2778.9209,99.832
2779.8850,99.8293
2780.8494,99.8267
2781.8135,99.8254
2782.7778,99.8258
2783.7419,99.8271
2784.7063,99.8279
2785.6704,99.8272
2786.6348,99.8244
2787.5989,99.8201
2788.5632,99.8148
2789.5273,99.8089
2790.4917,99.8024
2791.4558,99.7954
2792.4202,99.7887
2793.3843,99.7832
2794.3486,99.7801
2795.3127,99.7794
2796.2771,99.7795
2797.2412,99.7775
2798.2056,99.7706
2799.1697,99.7573
2800.1340,99.7364
2801.0981,99.702
2802.0625,99.6701
2803.0266,99.6438
2803.9910,99.6241
2804.9551,99.6093
2805.9194,99.5954
2806.8835,99.5784
2807.8479,99.5553
2808.8120,99.5253
2809.7764,99.4901
2810.7405,99.4528
2811.7048,99.417
2812.6689,99.3848
2813.6333,99.3559
2814.5974,99.3285
2815.5618,99.2995
2816.5259,99.2669
2817.4902,99.2308
2818.4543,99.1925
2819.4187,99.1535
2820.3828,99.1145
2821.3472,99.0736
2822.3113,99.0281
2823.2756,98.9754
2824.2397,98.9146
2825.2041,98.847
2826.1682,98.775
2827.1326,98.7015
2828.0967,98.6287
2829.0610,98.5578
2830.0251,98.4897
2830.9895,98.425
2831.9536,98.3641
2832.9180,98.3076
2833.8821,98.2562
2834.8464,98.2108
2835.8105,98.1732
2836.7749,98.145
2837.7390,98.1277
2838.7034,98.1222
2839.6675,98.1289
2840.6318,98.148
2841.5959,98.1802
2842.5603,98.2266
2843.5244,98.2885
2844.4888,98.3664
2845.4529,98.4593
2846.4172,98.5641
2847.3813,98.6755
2848.3457,98.7862
2849.3098,98.8882
2850.2742,98.9739
2851.2383,99.038
2852.2026,99.0783
2853.1667,99.096
2854.1311,99.0943
2855.0952,99.0778
2856.0596,99.0511
2857.0237,99.0187
2857.9880,98.9845
2858.9521,98.9514
2859.9165,98.9209
2860.8806,98.8933
2861.8450,98.8685
2862.8091,98.8467
2863.7734,98.8291
2864.7375,98.8178
2865.7019,98.8143
2866.6660,98.8184
2867.6304,98.8278
2868.5945,98.8389
2869.5588,98.8477
2870.5229,98.8515
2871.4873,98.8496
2872.4514,98.8433
2873.4158,98.8359
2874.3799,98.832
2875.3442,98.8365
2876.3083,98.8534
2877.2727,98.8839
2878.2368,98.9263
2879.2012,98.9753
2880.1653,99.0239
2881.1296,99.0653
2882.0938,99.0951
2883.0581,99.1123
2884.0222,99.119
2884.9866,99.1193
2885.9507,99.1177
2886.9150,99.1179
2887.8792,99.1225
2888.8435,99.1318
2889.8076,99.144
2890.7720,99.1545
2891.7361,99.158
2892.7004,99.1514
2893.6646,99.1378
2894.6289,99.128
2895.5930,99.1364
2896.5574,99.1737
2897.5215,99.2387
2898.4858,99.3153
2899.4500,99.3779
2900.4143,99.4026
2901.3784,99.3791
2902.3428,99.3156
2903.3069,99.2337
2904.2712,99.1576
2905.2354,99.1043
2906.1997,99.0793
2907.1638,99.0789
2908.1282,99.0947
2909.0923,99.1181
2910.0566,99.1425
2911.0208,99.1636
2911.9851,99.1796
2912.9492,99.1916
2913.9136,99.2026
2914.8777,99.2155
2915.8420,99.231
2916.8062,99.2463
2917.7705,99.2558
2918.7346,99.2538
2919.6990,99.2369
2920.6631,99.2051
2921.6274,99.1603
2922.5916,99.1047
2923.5559,99.0393
2924.5200,98.9633
2925.4844,98.8748
2926.4485,98.7727
2927.4128,98.6576
2928.3770,98.5333
2929.3413,98.4059
2930.3054,98.2835
2931.2698,98.1733
2932.2339,98.08
2933.1982,98.0042
2934.1624,97.9436
2935.1267,97.8951
2936.0908,97.8567
2937.0552,97.829
2938.0193,97.8142
2938.9836,97.8141
2939.9478,97.8283
2940.9121,97.8534
2941.8762,97.8843
2942.8406,97.9167
2943.8047,97.9494
2944.7690,97.9848
2945.7332,98.0273
2946.6975,98.0806
2947.6616,98.1454
2948.6260,98.2182
2949.5901,98.2936
2950.5544,98.3661
2951.5186,98.433
2952.4829,98.494
2953.4470,98.5508
2954.4114,98.6053
2955.3755,98.659
2956.3398,98.7125
2957.3040,98.7655
2958.2683,98.8162
2959.2324,98.8624
2960.1968,98.9023
2961.1609,98.9367
2962.1252,98.9696
2963.0894,99.0074
2964.0537,99.0555
2965.0178,99.1146
2965.9822,99.1795
2966.9463,99.2417
2967.9106,99.2934
2968.8748,99.3316
2969.8391,99.3582
2970.8032,99.3782
2971.7676,99.3961
2972.7317,99.4142
2973.6960,99.4335
2974.6602,99.4547
2975.6245,99.4797
2976.5886,99.5099
2977.5530,99.545
2978.5171,99.5819
2979.4814,99.6165
2980.4456,99.6468
2981.4099,99.676
2982.3740,99.7124
2983.3384,99.7657
2984.3025,99.8415
2985.2668,99.9376
2986.2310,100.03
2987.1953,100.092
2988.1594,100.102
2989.1238,100.052
2990.0879,99.9549
2991.0522,99.8376
2992.0164,99.7291
2992.9807,99.6484
2993.9448,99.5979
2994.9092,99.5663
2995.8733,99.5372
2996.8376,99.4983
2997.8018,99.4465
2998.7661,99.3866
2999.7302,99.3257
3000.6946,99.2689
3001.6587,99.2172
3002.6230,99.1683
3003.5872,99.1194
3004.5515,99.0688
3005.5156,99.0166
3006.4800,98.9639
3007.4441,98.912
3008.4084,98.8618
3009.3726,98.8135
3010.3369,98.7663
3011.3010,98.7188
3012.2654,98.6697
3013.2295,98.618
3014.1938,98.5637
3015.1580,98.508
3016.1223,98.4527
3017.0864,98.3998
3018.0508,98.3513
3019.0149,98.3079
3019.9792,98.2694
3020.9434,98.2337
3021.9077,98.1975
3022.8718,98.1578
3023.8362,98.113
3024.8003,98.0649
3025.7646,98.0183
3026.7288,97.9797
3027.6931,97.9536
3028.6572,97.9403
3029.6216,97.9342
3030.5857,97.9258
3031.5500,97.9065
3032.5142,97.8726
3033.4785,97.8277
3034.4426,97.7807
3035.4070,97.741
3036.3711,97.7139
3037.3354,97.6989
3038.2996,97.6909
3039.2639,97.6841
3040.2280,97.6742
3041.1924,97.6601
3042.1565,97.6429
3043.1208,97.6242
3044.0850,97.6055
3045.0493,97.5876
3046.0134,97.5712
3046.9778,97.5574
3047.9419,97.5468
3048.9063,97.5392
3049.8704,97.5335
3050.8347,97.5276
3051.7988,97.5197
3052.7632,97.5089
3053.7273,97.4955
3054.6917,97.4807
3055.6558,97.4662
3056.6201,97.4535
3057.5842,97.4432
3058.5486,97.4352
3059.5127,97.429
3060.4771,97.4244
3061.4412,97.4213
3062.4055,97.4198
3063.3696,97.4195
3064.3340,97.4189
3065.2981,97.4159
3066.2625,97.4094
3067.2266,97.4
3068.1909,97.3902
3069.1550,97.3828
3070.1194,97.3795
3071.0835,97.38
3072.0479,97.3822
3073.0120,97.3841
3073.9763,97.3854
3074.9404,97.3868
3075.9048,97.3898
3076.8689,97.3944
3077.8333,97.399
3078.7974,97.4012
3079.7617,97.3996
3080.7258,97.3954
3081.6902,97.3914
3082.6543,97.3898
3083.6187,97.3913
3084.5828,97.3938
3085.5471,97.3939
3086.5112,97.3893
3087.4756,97.38
3088.4397,97.3685
3089.4041,97.3589
3090.3682,97.3547
3091.3325,97.3576
3092.2966,97.3665
3093.2610,97.3784
3094.2251,97.3894
3095.1895,97.3965
3096.1536,97.3983
3097.1179,97.3958
3098.0820,97.3906
3099.0464,97.3838
3100.0105,97.3752
3100.9749,97.3636
3101.9390,97.3485
3102.9033,97.331
3103.8674,97.3134
3104.8318,97.2986
3105.7959,97.2876
3106.7603,97.2798
3107.7244,97.2737
3108.6887,97.2682
3109.6528,97.2639
3110.6172,97.2623
3111.5813,97.2646
3112.5457,97.2695
3113.5098,97.2742
3114.4741,97.2751
3115.4382,97.2703
3116.4026,97.2609
3117.3667,97.2501
3118.3311,97.2413
3119.2952,97.2363
3120.2595,97.2342
3121.2236,97.2325
3122.1880,97.2279
3123.1521,97.2184
3124.1165,97.2034
3125.0806,97.184
3126.0449,97.1626
3127.0090,97.1431
3127.9734,97.1298
3128.9375,97.1258
3129.9019,97.1322
3130.8660,97.1463
3131.8303,97.1621
3132.7944,97.1723
3133.7588,97.1714
3134.7229,97.158
3135.6873,97.1356
3136.6514,97.1108
3137.6157,97.0904
3138.5798,97.0784
3139.5442,97.0747
3140.5083,97.0762
3141.4727,97.0779
3142.4368,97.0759
3143.4011,97.0685
3144.3652,97.0571
3145.3296,97.0447
3146.2937,97.0348
3147.2581,97.0297
3148.2222,97.0294
3149.1865,97.0321
3150.1506,97.0349
3151.1150,97.0347
3152.0791,97.0295
3153.0435,97.0188
3154.0076,97.0037
3154.9719,96.9865
3155.9360,96.9696
3156.9004,96.9541
3157.8645,96.9392
3158.8289,96.9228
3159.7930,96.9032
3160.7573,96.8818
3161.7214,96.863
3162.6858,96.8522
3163.6499,96.8524
3164.6143,96.8611
3165.5784,96.8712
3166.5427,96.8745
3167.5068,96.8664
3168.4712,96.8486
3169.4353,96.76
3170.3997,96.7435
3171.3638,96.7359
3172.3281,96.7362
3173.2922,96.7407
3174.2566,96.7453
3175.2207,96.7478
3176.1851,96.7473
3177.1492,96.7436
3178.1135,96.7366
3179.0776,96.7268
3180.0420,96.7158
3181.0061,96.7062
3181.9705,96.6999
3182.9346,96.697
3183.8989,96.6964
3184.8630,96.6964
3185.8274,96.6964
3186.7915,96.6968
3187.7559,96.6972
3188.7200,96.6956
3189.6843,96.6885
3190.6484,96.6729
3191.6128,96.6494
3192.5769,96.6226
3193.5413,96.5995
3194.5054,96.5851
3195.4697,96.5804
3196.4338,96.5817
3197.3982,96.5835
3198.3623,96.5824
3199.3267,96.5783
3200.2908,96.5737
3201.2551,96.5701
3202.2192,96.5664
3203.1836,96.5591
3204.1477,96.5448
3205.1121,96.5239
3206.0762,96.5007
3207.0405,96.482
3208.0046,96.4734
3208.9690,96.4756
3209.9331,96.484
3210.8975,96.4916
3211.8616,96.4927
3212.8259,96.4863
3213.7900,96.4759
3214.7544,96.4669
3215.7185,96.4633
3216.6829,96.4649
3217.6470,96.4679
3218.6113,96.4675
3219.5754,96.46
3220.5398,96.4451
3221.5039,96.4247
3222.4683,96.4021
3223.4324,96.3801
3224.3967,96.3615
3225.3608,96.3489
3226.3252,96.3444
3227.2893,96.3488
3228.2537,96.3597
3229.2178,96.3723
3230.1821,96.3807
3231.1462,96.381
3232.1106,96.3732
3233.0747,96.3598
3234.0391,96.3443
3235.0032,96.3278
3235.9675,96.3097
3236.9316,96.2887
3237.8960,96.2659
3238.8601,96.245
3239.8245,96.2307
3240.7886,96.2258
3241.7529,96.2285
3242.7170,96.2339
3243.6814,96.2361
3244.6455,96.232
3245.6099,96.2221
3246.5740,96.2097
3247.5383,96.1976
3248.5024,96.1873
3249.4668,96.1783
3250.4309,96.1704
3251.3953,96.1637
3252.3594,96.1583
3253.3237,96.1531
3254.2878,96.1454
3255.2522,96.1323
3256.2163,96.1123
3257.1807,96.0877
3258.1448,96.0628
3259.1091,96.0425
3260.0732,96.0296
3261.0376,96.0231
3262.0017,96.0194
3262.9661,96.0143
3263.9302,96.0054
3264.8945,95.9929
3265.8586,95.9787
3266.8230,95.9652
3267.7871,95.9536
3268.7515,95.9442
3269.7156,95.936
3270.6799,95.9285
3271.6440,95.9213
3272.6084,95.9141
3273.5725,95.9064
3274.5369,95.8974
3275.5010,95.8868
3276.4653,95.8755
3277.4294,95.8661
3278.3938,95.8617
3279.3579,95.8643
3280.3223,95.8736
3281.2864,95.8859
3282.2507,95.8962
3283.2148,95.8995
3284.1792,95.8935
3285.1433,95.8785
3286.1077,95.8576
3287.0718,95.8347
3288.0361,95.8134
3289.0002,95.7966
3289.9646,95.7859
3290.9287,95.781
3291.8931,95.7795
3292.8572,95.777
3293.8215,95.769
3294.7856,95.7525
3295.7500,95.7283
3296.7141,95.7012
3297.6785,95.6792
3298.6426,95.6695
3299.6069,95.6761
3300.5710,95.697
3301.5354,95.7254
3302.4995,95.7519
3303.4639,95.7687
3304.4280,95.7721
3305.3923,95.7639
3306.3564,95.7489
3307.3208,95.7332
3308.2849,95.7209
3309.2493,95.714
3310.2134,95.7121
3311.1777,95.7136
3312.1418,95.7166
3313.1062,95.7184
3314.0703,95.7158
3315.0347,95.7061
3315.9988,95.6886
3316.9631,95.6656
3317.9272,95.6424
3318.8916,95.6252
3319.8557,95.6182
3320.8201,95.6216
3321.7842,95.6315
3322.7485,95.642
3323.7126,95.648
3324.6770,95.647
3325.6411,95.6396
3326.6055,95.6279
3327.5696,95.6138
3328.5339,95.5988
3329.4980,95.5833
3330.4624,95.5681
3331.4265,95.5544
3332.3909,95.5439
3333.3550,95.5386
3334.3193,95.5407
3335.2834,95.5517
3336.2478,95.5719
3337.2119,95.5996
3338.1763,95.63
3339.1404,95.6559
3340.1047,95.6698
3341.0688,95.6675
3342.0332,95.6503
3342.9973,95.6251
3343.9617,95.6015
3344.9258,95.5871
3345.8901,95.5845
3346.8542,95.5909
3347.8186,95.6004
3348.7827,95.6068
3349.7471,95.6064
3350.7112,95.5979
3351.6755,95.5822
3352.6396,95.5618
3353.6040,95.5402
3354.5681,95.5218
3355.5325,95.5104
3356.4966,95.5079
3357.4609,95.5134
3358.4250,95.5237
3359.3894,95.5353
3360.3535,95.546
3361.3179,95.555
3362.2820,95.562
3363.2463,95.5671
3364.2104,95.5702
3365.1748,95.5725
3366.1389,95.5762
3367.1033,95.5833
3368.0674,95.5942
3369.0317,95.6064
3369.9958,95.6162
3370.9602,95.622
3371.9243,95.6253
3372.8887,95.6296
3373.8528,95.6374
3374.8171,95.6471
3375.7813,95.6534
3376.7456,95.6505
3377.7097,95.6366
3378.6741,95.6158
3379.6382,95.5956
3380.6025,95.5831
3381.5667,95.5811
3382.5310,95.5875
3383.4951,95.5968
3384.4595,95.6032
3385.4236,95.6026
3386.3879,95.5939
3387.3521,95.5793
3388.3164,95.5636
3389.2805,95.5529
3390.2449,95.5519
3391.2090,95.5612
3392.1733,95.576
3393.1375,95.5885
3394.1018,95.5923
3395.0659,95.5861
3396.0303,95.5744
3396.9944,95.5638
3397.9587,95.5591
3398.9229,95.5601
3399.8872,95.563
3400.8513,95.5645
3401.8157,95.5648
3402.7798,95.5673
3403.7441,95.5751
3404.7083,95.5874
3405.6726,95.5988
3406.6367,95.6014
3407.6011,95.5908
3408.5652,95.5689
3409.5295,95.544
3410.4937,95.5259
3411.4580,95.5208
3412.4221,95.5274
3413.3865,95.5383
3414.3506,95.5446
3415.3149,95.5409
3416.2791,95.5296
3417.2434,95.5181
3418.2075,95.5147
3419.1719,95.5237
3420.1360,95.5422
3421.1003,95.5632
3422.0645,95.5797
3423.0288,95.5892
3423.9929,95.5938
3424.9573,95.5973
3425.9214,95.6023
3426.8857,95.6079
3427.8499,95.6108
3428.8142,95.6078
3429.7783,95.5989
3430.7427,95.5878
3431.7068,95.5799
3432.6711,95.5794
3433.6353,95.5863
3434.5996,95.5969
3435.5637,95.6061
3436.5281,95.6103
3437.4922,95.6096
3438.4565,95.6061
3439.4207,95.602
3440.3850,95.5974
3441.3491,95.5912
3442.3135,95.5838
3443.2776,95.5795
3444.2419,95.5859
3445.2061,95.6093
3446.1704,95.6491
3447.1345,95.6962
3448.0989,95.7372
3449.0630,95.7619
3450.0273,95.7689
3450.9915,95.7645
3451.9558,95.759
3452.9199,95.7605
3453.8843,95.771
3454.8484,95.7861
3455.8127,95.7991
3456.7769,95.8062
3457.7412,95.8087
3458.7053,95.811
3459.6697,95.817
3460.6338,95.8273
3461.5981,95.8395
3462.5623,95.8516
3463.5266,95.8645
3464.4907,95.8819
3465.4551,95.9072
3466.4192,95.9396
3467.3835,95.9727
3468.3477,95.9971
3469.3120,96.0062
3470.2761,96.0002
3471.2405,95.987
3472.2046,95.9776
3473.1689,95.9798
3474.1331,95.993
3475.0974,96.0096
3476.0615,96.0206
3477.0259,96.0224
3477.9900,96.0195
3478.9543,96.0217
3479.9185,96.0365
3480.8828,96.0627
3481.8469,96.0913
3482.8113,96.112
3483.7754,96.1206
3484.7397,96.1217
3485.7039,96.1242
3486.6682,96.1348
3487.6323,96.1533
3488.5967,96.1723
3489.5608,96.1833
3490.5251,96.1832
3491.4893,96.1766
3492.4536,96.1739
3493.4177,96.1853
3494.3821,96.2143
3495.3462,96.2545
3496.3105,96.2934
3497.2747,96.3199
3498.2390,96.3315
3499.2031,96.3351
3500.1675,96.3433
3501.1316,96.3647
3502.0959,96.3966
3503.0601,96.4255
3504.0244,96.4379
3504.9885,96.43
3505.9529,96.409
3506.9170,96.3894
3507.8813,96.3868
3508.8455,96.41
3509.8098,96.4557
3510.7739,96.5098
3511.7383,96.5568
3512.7024,96.587
3513.6667,96.5986
3514.6309,96.5963
3515.5952,96.5872
3516.5593,96.5784
3517.5237,96.575
3518.4878,96.581
3519.4521,96.5996
3520.4163,96.6321
3521.3806,96.6762
3522.3447,96.7249
3523.3091,96.7702
3524.2732,96.8088
3525.2375,96.8445
3526.2017,96.8842
3527.1660,96.9306
3528.1301,96.9775
3529.0945,97.0135
3530.0586,97.0302
3531.0229,97.0274
3531.9871,97.0132
3532.9514,97.0011
3533.9155,97.0036
3534.8799,97.0266
3535.8440,97.0666
3536.8083,97.1132
3537.7725,97.1558
3538.7368,97.1883
3539.7009,97.2103
3540.6653,97.227
3541.6294,97.25
3542.5938,97.2932
3543.5579,97.3628
3544.5222,97.4466
3545.4863,97.5182
3546.4507,97.5562
3547.4148,97.5597
3548.3792,97.5449
3549.3433,97.5358
3550.3076,97.5561
3551.2717,97.6196
3552.2361,97.7198
3553.2002,97.8315
3554.1646,97.9263
3555.1287,97.9889
3556.0930,98.0223
3557.0571,98.0411
3558.0215,98.0598
3558.9856,98.0798
3559.9500,98.0858
3560.9141,98.0572
3561.8784,97.9883
3562.8425,97.9039
3563.8069,97.8619
3564.7710,97.9266
3565.7354,98.1078
3566.6995,98.3209
3567.6638,98.4608
3568.6279,98.5022
3569.5923,98.4785
3570.5564,98.4203
3571.5208,98.3468
3572.4849,98.2812
3573.4492,98.2494
3574.4133,98.2673
3575.3777,98.3308
3576.3418,98.4197
3577.3062,98.5101
3578.2703,98.581
3579.2346,98.615
3580.1987,98.5979
3581.1631,98.5217
3582.1272,98.3932
3583.0916,98.2437
3584.0557,98.1347
3585.0200,98.139
3585.9841,98.283
3586.9485,98.4927
3587.9126,98.6438
3588.8770,98.6771
3589.8411,98.6143
3590.8054,98.501
3591.7695,98.3832
3592.7339,98.3057
3593.6980,98.2979
3594.6624,98.354
3595.6265,98.4408
3596.5908,98.5277
3597.5549,98.6048
3598.5193,98.675
3599.4834,98.7365
3600.4478,98.7744
3601.4119,98.7697
3602.3762,98.7158
3603.3403,98.6246
3604.3047,98.5259
3605.2688,98.4604
3606.2332,98.4606
3607.1973,98.5259
3608.1616,98.6228
3609.1257,98.7152
3610.0901,98.7903
3611.0542,98.8499
3612.0186,98.8898
3612.9829,98.8941
3613.9470,98.8504
3614.9114,98.7688
3615.8755,98.6882
3616.8398,98.6626
3617.8040,98.7245
3618.7683,98.8484
3619.7324,98.9628
3620.6968,99.0102
3621.6609,98.9718
3622.6252,98.8418
3623.5894,98.6222
3624.5537,98.351
3625.5178,98.1297
3626.4822,98.1022
3627.4463,98.3408
3628.4106,98.7085
3629.3748,98.9702
3630.3391,99.0597
3631.3032,99.0535
3632.2676,99.017
3633.2317,98.9805
3634.1960,98.9651
3635.1602,98.987
3636.1245,99.05
3637.0886,99.1443
3638.0530,99.2536
3639.0171,99.3615
3639.9814,99.4493
3640.9456,99.4926
3641.9099,99.4639
3642.8740,99.346
3643.8384,99.1535
3644.8025,98.9609
3645.7668,98.9254
3646.7310,99.2479
3647.6953,99.9571
3648.6594,100.632
3649.6238,100.785
3650.5879,100.51
3651.5522,100.134
3652.5164,99.8006
3653.4807,99.5458
3654.4448,99.4042
3655.4092,99.4125
3656.3733,99.5649
3657.3376,99.7942
3658.3018,100.018
3659.2661,100.189
3660.2302,100.296
3661.1946,100.349
3662.1587,100.355
3663.1230,100.304
3664.0872,100.182
3665.0515,99.9979
3666.0156,99.8081
3666.9800,99.7119
3667.9441,99.788
3668.9084,99.9893
3669.8726,100.14
3670.8369,100.108
3671.8010,99.9274
3672.7654,99.7431
3673.7295,99.7128
3674.6938,99.9004
3675.6580,100.193
3676.6223,100.408
3677.5864,100.489
3678.5508,100.475
3679.5149,100.409
3680.4792,100.31
3681.4434,100.183
3682.4077,100.023
3683.3718,99.8198
3684.3362,99.5796
3685.3003,99.354
3686.2646,99.2528
3687.2288,99.3979
3688.1931,99.7939
3689.1572,100.233
3690.1216,100.467
3691.0857,100.456
3692.0500,100.305
3693.0142,100.098
3693.9785,99.8717
3694.9426,99.6389
3695.9070,99.4121
3696.8711,99.2101
3697.8354,99.0634
3698.7996,99.0115
3699.7639,99.0834
3700.7280,99.2645
3701.6924,99.4809
3702.6565,99.6346
3703.6208,99.6612
3704.5850,99.5483
3705.5493,99.3232
3706.5134,99.0473
3707.4778,98.8224
3708.4419,98.7796
3709.4063,99.0062
3710.3704,99.4268
3711.3347,99.8133
3712.2988,100.007
3713.2632,100.024
3714.2273,99.9326
3715.1917,99.7756
3716.1558,99.5823
3717.1201,99.3936
3718.0842,99.2594
3719.0486,99.2178
3720.0127,99.2758
3720.9771,99.4102
3721.9412,99.5859
3722.9055,99.7712
3723.8696,99.9348
3724.8340,100.04
3725.7981,100.054
3726.7625,99.9636
3727.7266,99.776
3728.6909,99.5177
3729.6550,99.2397
3730.6194,99.0294
3731.5835,99.0118
3732.5479,99.3113
3733.5120,99.9405
3734.4763,100.68
3735.4404,101.189
3736.4048,101.328
3737.3689,101.196
3738.3333,100.904
3739.2974,100.495
3740.2617,100.008
3741.2258,99.5377
3742.1902,99.2367
3743.1543,99.223
3744.1187,99.4419
3745.0828,99.6902
3746.0471,99.8209
3747.0112,99.8397
3747.9756,99.8514
3748.9397,99.9732
3749.9041,100.204
3750.8682,100.367
3751.8325,100.32
3752.7966,100.123
3753.7610,99.8794
3754.7251,99.6371
3755.6895,99.4333
3756.6536,99.3213
3757.6179,99.3349
3758.5820,99.4416
3759.5464,99.5569
3760.5105,99.6112
3761.4749,99.5855
3762.4390,99.4993
3763.4033,99.3888
3764.3674,99.2915
3765.3318,99.2343
3766.2959,99.2287
3767.2603,99.2728
3768.2244,99.3559
3769.1887,99.4563
3770.1528,99.5427
3771.1172,99.5836
3772.0813,99.5585
3773.0457,99.4623
3774.0098,99.3083
3774.9741,99.1352
3775.9382,99.006
3776.9026,98.9847
3777.8667,99.0909
3778.8311,99.2739
3779.7952,99.4474
3780.7595,99.5525
3781.7236,99.5811
3782.6880,99.5567
3783.6521,99.5099
3784.6165,99.4629
3785.5806,99.4261
3786.5449,99.401
3787.5090,99.3837
3788.4734,99.3676
3789.4375,99.3435
3790.4019,99.3062
3791.3660,99.2617
3792.3303,99.2306
3793.2944,99.2381
3794.2588,99.294
3795.2229,99.3761
3796.1873,99.4417
3797.1514,99.4613
3798.1157,99.4455
3799.0798,99.433
3800.0442,99.4411
3801.0083,99.4322
3801.9727,99.3542
3802.9368,99.2064
3803.9011,99.0401
3804.8652,98.9259
3805.8296,98.9247
3806.7937,99.0504
3807.7581,99.246
3808.7222,99.4165
3809.6865,99.4863
3810.6506,99.4283
3811.6150,99.2727
3812.5791,99.1035
3813.5435,99.0219
3814.5076,99.0735
3815.4719,99.1984
3816.4360,99.2885
3817.4004,99.2947
3818.3645,99.256
3819.3289,99.2391
3820.2930,99.2677
3821.2573,99.3107
3822.2214,99.3363
3823.1858,99.3429
3824.1499,99.3391
3825.1143,99.3319
3826.0784,99.3302
3827.0427,99.3424
3828.0068,99.3685
3828.9712,99.3976
3829.9353,99.4119
3830.8997,99.3915
3831.8638,99.3195
3832.8281,99.1905
3833.7922,99.0223
3834.7566,98.8634
3835.7207,98.782
3836.6851,98.8295
3837.6492,98.9968
3838.6135,99.2134
3839.5776,99.4058
3840.5420,99.5474
3841.5061,99.6497
3842.4705,99.7297
3843.4346,99.7909
3844.3989,99.8172
3845.3630,99.7775
3846.3274,99.6333
3847.2915,99.3549
3848.2559,98.9453
3849.2200,98.476
3850.1843,98.1236
3851.1484,98.1513
3852.1128,98.7014
3853.0769,99.4616
3854.0413,99.9169
3855.0054,99.9988
3855.9697,99.902
3856.9338,99.7231
3857.8982,99.4792
3858.8623,99.1998
3859.8267,98.9554
3860.7908,98.8367
3861.7551,98.8977
3862.7192,99.0978
3863.6836,99.3102
3864.6477,99.4152
3865.6121,99.3785
3866.5762,99.2453
3867.5405,99.0977
3868.5046,99.0168
3869.4690,99.047
3870.4331,99.1721
3871.3975,99.3276
3872.3616,99.4451
3873.3259,99.4856
3874.2900,99.4416
3875.2544,99.3288
3876.2185,99.1817
3877.1829,99.0516
3878.1470,98.9917
3879.1113,99.0281
3880.0754,99.1358
3881.0398,99.2514
3882.0039,99.3208
3882.9683,99.3313
3883.9324,99.2995
3884.8967,99.2417
3885.8608,99.1607
3886.8252,99.0569
3887.7893,98.9462
3888.7537,98.8718
3889.7178,98.8959
3890.6821,99.054
3891.6462,99.3004
3892.6106,99.5215
3893.5747,99.6188
3894.5391,99.5612
3895.5032,99.3768
3896.4675,99.1331
3897.4316,98.9155
3898.3960,98.795
3899.3601,98.7963
3900.3245,98.8958
3901.2886,99.0517
3902.2529,99.2257
3903.2170,99.3818
3904.1814,99.4898
3905.1455,99.5382
3906.1099,99.534
3907.0740,99.4906
3908.0383,99.4231
3909.0024,99.3474
3909.9668,99.277
3910.9309,99.2171
3911.8953,99.1654
3912.8594,99.1216
3913.8237,99.0968
3914.7878,99.1128
3915.7522,99.1843
3916.7163,99.2965
3917.6807,99.405
3918.6448,99.4647
3919.6091,99.4586
3920.5732,99.4008
3921.5376,99.3233
3922.5017,99.2613
3923.4661,99.2356
3924.4302,99.2428
3925.3945,99.2602
3926.3586,99.2651
3927.3230,99.2506
3928.2871,99.2304
3929.2515,99.2324
3930.2156,99.2794
3931.1799,99.3695
3932.1440,99.4733
3933.1084,99.5545
3934.0725,99.5893
3935.0369,99.5704
3936.0010,99.5025
3936.9653,99.4004
3937.9294,99.2875
3938.8938,99.1932
3939.8579,99.1445
3940.8223,99.1537
3941.7864,99.2091
3942.7507,99.2797
3943.7148,99.3338
3944.6792,99.3575
3945.6433,99.3596
3946.6077,99.362
3947.5718,99.3842
3948.5361,99.4276
3949.5002,99.4732
3950.4646,99.4953
3951.4287,99.4789
3952.3931,99.428
3953.3572,99.3606
3954.3215,99.2993
3955.2856,99.262
3956.2500,99.2558
3957.2141,99.2782
3958.1785,99.3218
3959.1426,99.378
3960.1069,99.4383
3961.0710,99.4917
3962.0354,99.526
3962.9995,99.5312
3963.9639,99.5051
3964.9280,99.4548
3965.8923,99.3948
3966.8564,99.3417
3967.8208,99.309
3968.7849,99.3034
3969.7493,99.3234
3970.7134,99.3625
3971.6777,99.4115
3972.6418,99.4607
3973.6062,99.5013
3974.5703,99.5263
3975.5347,99.5324
3976.4988,99.5215
3977.4631,99.5004
3978.4272,99.4774
3979.3916,99.4595
3980.3557,99.4499
3981.3201,99.4467
3982.2842,99.4448
3983.2485,99.4389
3984.2126,99.4262
3985.1770,99.4083
3986.1411,99.3906
3987.1055,99.3803
3988.0696,99.383
3989.0339,99.3995
3989.9980,99.4243
3990.9624,99.4485
3991.9265,99.4642
3992.8909,99.4688
3993.8550,99.4659
3994.8193,99.4618
3995.7834,99.4608
3996.7478,99.4622
3997.7119,99.4612
3998.6763,99.4529
3999.6404,99.4364
4000.6047,99.5774

##### Extended Information
[Comments]
Sample name
Comment
User
Division
Company,HANKYONG

[Detailed Information]
Creation date,4/24/2024 3:28 PM

Data array type,Linear data array
Horizontal axis,Wavenumber [cm-1]
Vertical axis,%T
Start,649.893 cm-1
End,4000.6 cm-1
Data interval,0.964233 cm-1
Data points,3476    

[Measurement Information]
Model Name,FT/IR-4700typeA
Serial Number,D056761788

Accessory,ATR PRO ONE
Accessory S/N,C174761809
Incident angle,45 deg

Measurement Date,4/24/2024 3:28 PM

Light Source,Standard
Detector,TGS
Accumulation,32
Resolution,4 cm-1
Zero Filling,On
Apodization,Cosine
Gain,Auto (4)
Aperture,Auto (7.1 mm)
Scanning Speed,Auto (2 mm/sec)
Filter,Auto (30000 Hz)

