TITLE,
DATA TYPE,INFRARED SPECTRUM
ORIGIN,JASCO
OWNER,
DATE,24/04/24
TIME,15:58:41
SPECTROMETER/DATA SYSTEM,
LOCALE,1033
RESOLUTION,
DELTAX,0.964233
XUNITS,1/CM
YUNITS,TRANSMITTANCE
FIRSTX,  649.8934
LASTX, 4000.6047
NPOINTS,    3476
FIRSTY,    96.11204
MAXY,   101.57617
MINY,    75.35822
XYDATA
649.8934,96.112
650.8576,96.2546
651.8218,96.3762
652.7861,96.4763
653.7503,96.5545
654.7145,96.6158
655.6788,96.6708
656.6430,96.7323
657.6072,96.8092
658.5715,96.9008
659.5357,96.9955
660.4999,97.0776
661.4642,97.1407
662.4284,97.1963
663.3926,97.2713
664.3569,97.3993
665.3211,97.6132
666.2853,97.9321
667.2496,98.3175
668.2138,98.6214
669.1780,98.6926
670.1423,98.5837
671.1065,98.4586
672.0707,98.4086
673.0350,98.4466
673.9992,98.5518
674.9634,98.6925
675.9277,98.8376
676.8919,98.9671
677.8561,99.0767
678.8204,99.1704
679.7846,99.2489
680.7488,99.307
681.7131,99.3402
682.6773,99.3527
683.6415,99.3592
684.6058,99.3788
685.5700,99.4254
686.5342,99.4997
687.4985,99.5876
688.4627,99.6658
689.4269,99.7121
690.3912,99.7164
691.3554,99.6851
692.3196,99.6355
693.2839,99.5855
694.2481,99.5448
695.2123,99.5118
696.1766,99.4799
697.1408,99.4448
698.1050,99.4103
699.0693,99.3857
700.0335,99.3803
700.9977,99.397
701.9620,99.4305
702.9262,99.4706
703.8904,99.5063
704.8547,99.5304
705.8189,99.5419
706.7831,99.5463
707.7474,99.5529
708.7116,99.5717
709.6758,99.608
710.6401,99.6598
711.6043,99.7169
712.5685,99.7798
713.5328,99.8361
714.4970,99.8736
715.4612,99.8997
716.4255,99.922
717.3897,99.9431
718.3539,99.955
719.3182,99.9441
720.2824,99.9007
721.2466,99.8287
722.2109,99.7453
723.1751,99.6712
724.1393,99.6193
725.1036,99.59
726.0678,99.573
727.0320,99.555
727.9963,99.5274
728.9605,99.4909
729.9247,99.4538
730.8890,99.4255
731.8532,99.4089
732.8174,99.3978
733.7817,99.3782
734.7459,99.3356
735.7101,99.2621
736.6744,99.1609
737.6386,99.0453
738.6028,98.9318
739.5671,98.8332
740.5313,98.7531
741.4955,98.687
742.4598,98.6276
743.4240,98.5699
744.3882,98.5141
745.3525,98.4629
746.3167,98.4178
747.2809,98.3758
748.2452,98.3311
749.2094,98.2781
750.1736,98.2143
751.1379,98.1417
752.1021,98.0646
753.0663,97.9873
754.0306,97.9127
754.9948,97.8422
755.9590,97.7758
756.9233,97.7131
757.8875,97.6529
758.8517,97.5947
759.8160,97.5389
760.7802,97.4877
761.7444,97.4441
762.7087,97.4101
763.6729,97.3847
764.6371,97.3643
765.6014,97.3447
766.5656,97.3237
767.5298,97.3026
768.4941,97.2846
769.4583,97.2725
770.4225,97.2668
771.3868,97.2656
772.3510,97.2674
773.3152,97.2724
774.2795,97.2815
775.2437,97.2934
776.2079,97.3026
777.1722,97.2994
778.1364,97.2752
779.1006,97.2269
780.0649,97.16
781.0291,97.0861
781.9933,97.0173
782.9576,96.9605
783.9218,96.9148
784.8860,96.8737
785.8503,96.8281
786.8145,96.7701
787.7787,96.6942
788.7430,96.5972
789.7072,96.4794
790.6714,96.3447
791.6357,96.2015
792.5999,96.0602
793.5641,95.9303
794.5284,95.8169
795.4926,95.7199
796.4568,95.6354
797.4211,95.5587
798.3853,95.4858
799.3495,95.4137
800.3138,95.339
801.2780,95.2577
802.2422,95.1664
803.2065,95.0639
804.1707,94.9532
805.1349,94.841
806.0992,94.7355
807.0634,94.6438
808.0276,94.569
808.9919,94.5098
809.9561,94.4615
810.9203,94.4185
811.8846,94.3775
812.8488,94.3395
813.8130,94.3092
814.7773,94.2928
815.7415,94.2957
816.7057,94.3204
817.6700,94.3673
818.6342,94.4364
819.5984,94.5296
820.5627,94.6506
821.5269,94.8031
822.4911,94.989
823.4554,95.2058
824.4196,95.4473
825.3839,95.7039
826.3481,95.9653
827.3123,96.2219
828.2766,96.4653
829.2408,96.6895
830.2050,96.89
831.1693,97.0637
832.1335,97.2086
833.0977,97.3233
834.0620,97.407
835.0262,97.4589
835.9904,97.4777
836.9547,97.4619
837.9189,97.4101
838.8831,97.3225
839.8474,97.2013
840.8116,97.0506
841.7758,96.8753
842.7401,96.6801
843.7043,96.4691
844.6685,96.247
845.6328,96.0193
846.5970,95.7928
847.5612,95.5745
848.5255,95.3708
849.4897,95.1874
850.4539,95.0294
851.4182,94.9018
852.3824,94.8081
853.3466,94.7491
854.3109,94.7218
855.2751,94.7204
856.2393,94.7395
857.2036,94.7765
858.1678,94.8319
859.1320,94.9075
860.0963,95.0033
861.0605,95.1156
862.0247,95.2378
862.9890,95.363
863.9532,95.4858
864.9174,95.6028
865.8817,95.7116
866.8459,95.8102
867.8101,95.8972
868.7744,95.9736
869.7386,96.043
870.7028,96.1112
871.6671,96.1831
872.6313,96.2608
873.5955,96.3432
874.5598,96.4279
875.5240,96.5136
876.4882,96.6019
877.4525,96.6956
878.4167,96.7971
879.3809,96.9062
880.3452,97.0211
881.3094,97.1407
882.2736,97.2673
883.2379,97.4057
884.2021,97.5609
885.1663,97.7331
886.1306,97.9165
887.0948,98.1004
888.0590,98.2744
889.0233,98.4319
889.9875,98.573
890.9517,98.7022
891.9160,98.8256
892.8802,98.947
893.8444,99.0668
894.8087,99.1818
895.7729,99.2872
896.7371,99.3778
897.7014,99.4508
898.6656,99.5066
899.6298,99.5494
900.5941,99.5852
901.5583,99.6188
902.5225,99.6514
903.4868,99.6808
904.4510,99.7033
905.4152,99.7168
906.3795,99.723
907.3437,99.7252
908.3079,99.7262
909.2722,99.7255
910.2364,99.7203
911.2006,99.7078
912.1649,99.6882
913.1291,99.665
914.0933,99.6437
915.0576,99.6274
916.0218,99.616
916.9860,99.6061
917.9503,99.594
918.9145,99.5791
919.8787,99.5646
920.8430,99.5566
921.8072,99.5609
922.7714,99.58
923.7357,99.6115
924.6999,99.6491
925.6641,99.6852
926.6284,99.7136
927.5926,99.7459
928.5568,99.7931
929.5211,99.8379
930.4853,99.8841
931.4495,99.9325
932.4138,99.9798
933.3780,100.021
934.3422,100.051
935.3065,100.071
936.2707,100.084
937.2349,100.096
938.1992,100.11
939.1634,100.129
940.1276,100.153
941.0919,100.179
942.0561,100.209
943.0203,100.242
943.9846,100.277
944.9488,100.309
945.9130,100.333
946.8773,100.341
947.8415,100.331
948.8057,100.307
949.7700,100.276
950.7342,100.245
951.6984,100.215
952.6627,100.184
953.6269,100.142
954.5911,100.08
955.5554,99.9944
956.5196,99.8879
957.4838,99.7688
958.4481,99.6468
959.4123,99.5292
960.3765,99.418
961.3408,99.3113
962.3050,99.2058
963.2692,99.0998
964.2335,98.9946
965.1977,98.8948
966.1619,98.8055
967.1262,98.7308
968.0904,98.6724
969.0546,98.6292
970.0189,98.5978
970.9831,98.5731
971.9473,98.5483
972.9116,98.5162
973.8758,98.4702
974.8400,98.4059
975.8043,98.3216
976.7685,98.2183
977.7327,98.0986
978.6970,97.9654
979.6612,97.8205
980.6254,97.6652
981.5897,97.5004
982.5539,97.3278
983.5181,97.149
984.4824,96.965
985.4466,96.7747
986.4108,96.5755
987.3751,96.3632
988.3393,96.1343
989.3035,95.8867
990.2678,95.6194
991.2320,95.3312
992.1962,95.0197
993.1605,94.6815
994.1247,94.3133
995.0889,93.9148
996.0532,93.4892
997.0174,93.0434
997.9816,92.5851
998.9459,92.1198
999.9101,91.6485
1000.8743,91.1676
1001.8386,90.6705
1002.8028,90.1509
1003.7670,89.6059
1004.7313,89.0365
1005.6955,88.4468
1006.6597,87.8411
1007.6240,87.2216
1008.5882,86.5877
1009.5524,85.9385
1010.5167,85.2756
1011.4809,84.6046
1012.4451,83.9339
1013.4094,83.2712
1014.3736,82.6205
1015.3378,81.9805
1016.3021,81.3481
1017.2663,80.7222
1018.2305,80.1068
1019.1948,79.5101
1020.1590,78.939
1021.1232,78.3953
1022.0875,77.8736
1023.0517,77.3675
1024.0160,76.8768
1024.9802,76.4143
1025.9445,76.0052
1026.9087,75.6794
1027.8729,75.4606
1028.8372,75.3582
1029.8014,75.3681
1030.7656,75.4801
1031.7299,75.6869
1032.6941,75.9879
1033.6583,76.388
1034.6226,76.8921
1035.5868,77.4999
1036.5510,78.2015
1037.5153,78.9764
1038.4795,79.7937
1039.4437,80.615
1040.4080,81.4007
1041.3722,82.1171
1042.3364,82.7428
1043.3007,83.271
1044.2649,83.7074
1045.2291,84.0644
1046.1934,84.3557
1047.1576,84.5935
1048.1218,84.7886
1049.0861,84.9514
1050.0503,85.0921
1051.0145,85.2192
1051.9788,85.3382
1052.9430,85.4526
1053.9072,85.567
1054.8715,85.6914
1055.8357,85.8409
1056.7999,86.0314
1057.7642,86.271
1058.7284,86.5531
1059.6926,86.8556
1060.6569,87.1482
1061.6211,87.4059
1062.5853,87.6196
1063.5496,87.8014
1064.5138,87.9802
1065.4780,88.1874
1066.4423,88.4398
1067.4065,88.7269
1068.3707,89.0139
1069.3350,89.2561
1070.2992,89.4183
1071.2634,89.4882
1072.2277,89.4801
1073.1919,89.4274
1074.1561,89.3691
1075.1204,89.3357
1076.0846,89.3411
1077.0488,89.3837
1078.0131,89.4529
1078.9773,89.5374
1079.9415,89.6303
1080.9058,89.73
1081.8700,89.8376
1082.8342,89.9529
1083.7985,90.0721
1084.7627,90.1883
1085.7269,90.2957
1086.6912,90.3936
1087.6554,90.4885
1088.6196,90.5916
1089.5839,90.7121
1090.5481,90.8515
1091.5123,91.002
1092.4766,91.1504
1093.4408,91.2852
1094.4050,91.4016
1095.3693,91.5016
1096.3335,91.5888
1097.2977,91.6634
1098.2620,91.72
1099.2262,91.7516
1100.1904,91.7548
1101.1547,91.7339
1102.1189,91.6988
1103.0831,91.6587
1104.0474,91.6161
1105.0116,91.5659
1105.9758,91.5001
1106.9401,91.4148
1107.9043,91.3147
1108.8685,91.2111
1109.8328,91.115
1110.7970,91.031
1111.7612,90.9547
1112.7255,90.8769
1113.6897,90.7894
1114.6539,90.6899
1115.6182,90.5816
1116.5824,90.4702
1117.5466,90.3605
1118.5109,90.2569
1119.4751,90.1667
1120.4393,90.1022
1121.4036,90.0804
1122.3678,90.1189
1123.3320,90.2294
1124.2963,90.4143
1125.2605,90.6666
1126.2247,90.9733
1127.1890,91.3195
1128.1532,91.6902
1129.1174,92.0706
1130.0817,92.4459
1131.0459,92.8012
1132.0101,93.1238
1132.9744,93.4045
1133.9386,93.6383
1134.9028,93.8234
1135.8671,93.9608
1136.8313,94.0537
1137.7955,94.1083
1138.7598,94.1341
1139.7240,94.1432
1140.6882,94.147
1141.6525,94.1532
1142.6167,94.1638
1143.5809,94.1773
1144.5452,94.1917
1145.5094,94.208
1146.4736,94.2307
1147.4379,94.2651
1148.4021,94.3139
1149.3663,94.3771
1150.3306,94.4537
1151.2948,94.5466
1152.2590,94.6641
1153.2233,94.8179
1154.1875,95.0167
1155.1517,95.2612
1156.1160,95.543
1157.0802,95.849
1158.0444,96.1676
1159.0087,96.4934
1159.9729,96.8271
1160.9371,97.1705
1161.9014,97.5226
1162.8656,97.8763
1163.8298,98.2212
1164.7941,98.5456
1165.7583,98.84
1166.7225,99.0972
1167.6868,99.3127
1168.6510,99.4845
1169.6152,99.6134
1170.5795,99.7029
1171.5437,99.7544
1172.5079,99.701
1173.4722,99.6189
1174.4364,99.5069
1175.4006,99.3624
1176.3649,99.1841
1177.3291,98.972
1178.2933,98.7276
1179.2576,98.4513
1180.2218,98.1432
1181.1860,97.8031
1182.1503,97.4329
1183.1145,97.0373
1184.0787,96.6235
1185.0430,96.1993
1186.0072,95.7711
1186.9714,95.3426
1187.9357,94.9145
1188.8999,94.4857
1189.8641,94.0539
1190.8284,93.6161
1191.7926,93.1698
1192.7568,92.7127
1193.7211,92.2443
1194.6853,91.7661
1195.6495,91.2818
1196.6138,90.7969
1197.5780,90.317
1198.5422,89.8472
1199.5065,89.3376
1200.4707,88.9053
1201.4349,88.4931
1202.3992,88.1045
1203.3634,87.7441
1204.3276,87.4171
1205.2919,87.1276
1206.2561,86.878
1207.2203,86.6683
1208.1846,86.4962
1209.1488,86.3583
1210.1130,86.2503
1211.0773,86.1677
1212.0415,86.1064
1213.0057,86.0631
1213.9700,86.036
1214.9342,86.0249
1215.8984,86.0309
1216.8627,86.0546
1217.8269,86.0947
1218.7911,86.1493
1219.7554,86.2154
1220.7196,86.2908
1221.6838,86.3744
1222.6481,86.4654
1223.6123,86.562
1224.5765,86.6606
1225.5408,86.7568
1226.5050,86.847
1227.4692,86.9307
1228.4335,87.0109
1229.3977,87.0927
1230.3619,87.1821
1231.3262,87.2838
1232.2904,87.4007
1233.2546,87.533
1234.2189,87.6771
1235.1831,87.825
1236.1473,87.9655
1237.1116,88.0871
1238.0758,88.1827
1239.0400,88.2533
1240.0043,88.3066
1240.9685,88.3518
1241.9327,88.3918
1242.8970,88.4189
1243.8612,88.4158
1244.8254,88.3633
1245.7897,88.2485
1246.7539,88.0703
1247.7181,87.8371
1248.6824,87.5619
1249.6466,87.2548
1250.6108,86.9205
1251.5751,86.559
1252.5393,86.1707
1253.5035,85.7601
1254.4678,85.3365
1255.4320,84.9116
1256.3962,84.496
1257.3605,84.0971
1258.3247,83.7197
1259.2889,83.3678
1260.2532,83.0469
1261.2174,82.7639
1262.1816,82.5263
1263.1459,82.3413
1264.1101,82.2146
1265.0743,82.1509
1266.0386,82.1539
1267.0028,82.2267
1267.9670,82.3719
1268.9313,82.5906
1269.8955,82.882
1270.8597,83.2414
1271.8240,83.6608
1272.7882,84.1294
1273.7524,84.6358
1274.7167,85.1707
1275.6809,85.7269
1276.6451,86.299
1277.6094,86.8825
1278.5736,87.4727
1279.5378,88.0646
1280.5021,88.6526
1281.4663,89.2315
1282.4305,89.7962
1283.3948,90.3434
1284.3590,90.8718
1285.3232,91.3813
1286.2875,91.872
1287.2517,92.3416
1288.2159,92.7852
1289.1802,93.1971
1290.1444,93.5737
1291.1086,93.9164
1292.0729,94.2309
1293.0371,94.5247
1294.0013,94.8031
1294.9656,95.0674
1295.9298,95.3141
1296.8940,95.5386
1297.8583,95.7377
1298.8225,95.9119
1299.7867,96.0649
1300.7510,96.2016
1301.7152,96.3269
1302.6794,96.4441
1303.6437,96.5551
1304.6079,96.661
1305.5721,96.7616
1306.5364,96.8551
1307.5006,96.9387
1308.4648,97.0099
1309.4291,97.0686
1310.3933,97.1168
1311.3575,97.1576
1312.3218,97.1944
1313.2860,97.2291
1314.2502,97.264
1315.2145,97.3015
1316.1787,97.3454
1317.1429,97.398
1318.1072,97.4585
1319.0714,97.5217
1320.0356,97.5806
1320.9999,97.6299
1321.9641,97.6688
1322.9283,97.7001
1323.8926,97.7278
1324.8568,97.7551
1325.8210,97.7832
1326.7853,97.8122
1327.7495,97.8422
1328.7137,97.8741
1329.6780,97.9093
1330.6422,97.948
1331.6064,97.9879
1332.5707,98.0245
1333.5349,98.0544
1334.4991,98.0783
1335.4634,98.1037
1336.4276,98.1437
1337.3918,98.21
1338.3561,98.3024
1339.3203,98.4053
1340.2845,98.4974
1341.2488,98.5669
1342.2130,98.6138
1343.1772,98.6437
1344.1415,98.6623
1345.1057,98.6734
1346.0699,98.6778
1347.0342,98.673
1347.9984,98.6549
1348.9626,98.6211
1349.9269,98.5723
1350.8911,98.5126
1351.8553,98.4484
1352.8196,98.3863
1353.7838,98.3305
1354.7480,98.2796
1355.7123,98.2263
1356.6765,98.1615
1357.6407,98.0797
1358.6050,97.9843
1359.5692,97.8887
1360.5334,97.8099
1361.4977,97.7565
1362.4619,97.7216
1363.4261,97.6908
1364.3904,97.6548
1365.3546,97.6123
1366.3188,97.5658
1367.2831,97.5191
1368.2473,97.4761
1369.2115,97.4402
1370.1758,97.4173
1371.1400,97.4199
1372.1042,97.4658
1373.0685,97.5685
1374.0327,97.7215
1374.9969,97.8954
1375.9612,98.0567
1376.9254,98.19
1377.8896,98.3015
1378.8539,98.4069
1379.8181,98.5171
1380.7823,98.6304
1381.7466,98.7342
1382.7108,98.8184
1383.6750,98.8883
1384.6393,98.9673
1385.6035,99.0831
1386.5677,99.2394
1387.5320,99.4012
1388.4962,99.5177
1389.4604,99.5586
1390.4247,99.5242
1391.3889,99.439
1392.3531,99.3454
1393.3174,99.2922
1394.2816,99.3114
1395.2458,99.3938
1396.2101,99.4898
1397.1743,99.543
1398.1385,99.524
1399.1028,99.437
1400.0670,99.3025
1401.0313,99.139
1401.9955,98.9545
1402.9597,98.7482
1403.9240,98.5174
1404.8882,98.243
1405.8524,97.9471
1406.8167,97.6456
1407.7809,97.3425
1408.7451,97.0318
1409.7094,96.7041
1410.6736,96.3566
1411.6378,95.9963
1412.6021,95.634
1413.5663,95.2741
1414.5305,94.9119
1415.4948,94.5427
1416.4590,94.1728
1417.4232,93.8195
1418.3875,93.5058
1419.3517,93.2553
1420.3159,93.0805
1421.2802,92.9693
1422.2444,92.8919
1423.2086,92.8213
1424.1729,92.7434
1425.1371,92.6581
1426.1013,92.5772
1427.0656,92.5215
1428.0298,92.515
1428.9940,92.5701
1429.9583,92.672
1430.9225,92.7816
1431.8867,92.8594
1432.8510,92.8898
1433.8152,92.8885
1434.7794,92.8881
1435.7437,92.9054
1436.7079,92.9143
1437.6721,92.8693
1438.6364,92.7467
1439.6006,92.5401
1440.5648,92.2438
1441.5291,91.8575
1442.4933,91.3935
1443.4575,90.8748
1444.4218,90.3239
1445.3860,89.756
1446.3502,89.1843
1447.3145,88.635
1448.2787,88.1529
1449.2429,87.7799
1450.2072,87.5237
1451.1714,87.3506
1452.1356,87.212
1453.0999,87.0797
1454.0641,86.9704
1455.0283,86.9463
1455.9926,87.0533
1456.9568,87.2037
1457.9210,87.2439
1458.8853,87.1848
1459.8495,87.1086
1460.8137,87.0408
1461.7780,87.0006
1462.7422,87.0531
1463.7064,87.2946
1464.6707,87.7699
1465.6349,88.3972
1466.5991,89.0238
1467.5634,89.5515
1468.5276,89.9787
1469.4918,90.3747
1470.4561,90.8499
1471.4203,91.5053
1472.3845,92.324
1473.3488,93.1093
1474.3130,93.6645
1475.2772,93.9839
1476.2415,94.1582
1477.2057,94.2455
1478.1699,94.2597
1479.1342,94.1983
1480.0984,94.0581
1481.0626,93.8408
1482.0269,93.5542
1482.9911,93.2116
1483.9553,92.8285
1484.9196,92.4199
1485.8838,91.997
1486.8480,91.5618
1487.8123,91.0956
1488.7765,90.5704
1489.7407,90.0043
1490.7050,89.4704
1491.6692,89.0094
1492.6334,88.5954
1493.5977,88.182
1494.5619,87.7406
1495.5261,87.266
1496.4904,86.7653
1497.4546,86.2526
1498.4188,85.7544
1499.3831,85.2934
1500.3473,84.8599
1501.3115,84.4197
1502.2758,83.943
1503.2400,83.4216
1504.2042,82.8672
1505.1685,82.2853
1506.1327,81.6251
1507.0969,80.852
1508.0612,80.1809
1509.0254,79.8311
1509.9896,79.7354
1510.9539,79.7572
1511.9181,79.8515
1512.8823,80.07
1513.8466,80.5208
1514.8108,81.297
1515.7750,82.3926
1516.7393,83.6801
1517.7035,85.0114
1518.6677,86.3563
1519.6320,87.8189
1520.5962,89.4862
1521.5604,91.2537
1522.5247,92.8663
1523.4889,94.1558
1524.4531,95.1542
1525.4174,95.9935
1526.3816,96.762
1527.3458,97.4526
1528.3101,98.0134
1529.2743,98.421
1530.2385,98.7127
1531.2028,98.9699
1532.1670,99.2619
1533.1312,99.5785
1534.0955,99.8288
1535.0597,99.9305
1536.0239,99.876
1536.9882,99.7272
1537.9524,99.604
1538.9166,99.6678
1539.8809,99.9989
1540.8451,100.379
1541.8093,100.505
1542.7736,100.432
1543.7378,100.329
1544.7020,100.247
1545.6663,100.175
1546.6305,100.098
1547.5947,100.011
1548.5590,99.9125
1549.5232,99.8036
1550.4874,99.6832
1551.4517,99.5466
1552.4159,99.4325
1553.3801,99.2896
1554.3444,99.118
1555.3086,98.94
1556.2728,98.8112
1557.2371,98.7827
1558.2013,98.772
1559.1655,98.6254
1560.1298,98.4431
1561.0940,98.3598
1562.0582,98.3341
1563.0225,98.2839
1563.9867,98.1696
1564.9509,97.9952
1565.9152,97.7866
1566.8794,97.567
1567.8436,97.3377
1568.8079,97.0807
1569.7721,96.7921
1570.7363,96.4957
1571.7006,96.2098
1572.6648,95.925
1573.6290,95.6167
1574.5933,95.2593
1575.5575,94.8356
1576.5217,94.3652
1577.4860,93.9194
1578.4502,93.5473
1579.4144,93.2237
1580.3787,92.8941
1581.3429,92.5288
1582.3071,92.1361
1583.2714,91.7467
1584.2356,91.3896
1585.1998,91.075
1586.1641,90.7972
1587.1283,90.549
1588.0925,90.3311
1589.0568,90.1496
1590.0210,90.0074
1590.9852,89.9012
1591.9495,89.8247
1592.9137,89.7726
1593.8779,89.7414
1594.8422,89.7264
1595.8064,89.7217
1596.7706,89.7239
1597.7349,89.735
1598.6991,89.7611
1599.6633,89.8091
1600.6276,89.8826
1601.5918,89.9799
1602.5560,90.0952
1603.5203,90.2216
1604.4845,90.3538
1605.4487,90.4913
1606.4130,90.6393
1607.3772,90.8068
1608.3414,90.9978
1609.3057,91.2024
1610.2699,91.3968
1611.2341,91.5574
1612.1984,91.6775
1613.1626,91.7818
1614.1268,91.9311
1615.0911,92.198
1616.0553,92.5963
1617.0195,93.0343
1617.9838,93.3993
1618.9480,93.6612
1619.9122,93.8569
1620.8765,94.042
1621.8407,94.2624
1622.8049,94.5292
1623.7692,94.8065
1624.7334,95.0466
1625.6976,95.236
1626.6619,95.3962
1627.6261,95.5482
1628.5903,95.6884
1629.5546,95.7916
1630.5188,95.8329
1631.4830,95.8079
1632.4473,95.7435
1633.4115,95.7003
1634.3757,95.7465
1635.3400,95.8845
1636.3042,96.0213
1637.2684,96.0898
1638.2327,96.1101
1639.1969,96.1061
1640.1611,96.0745
1641.1254,96.0046
1642.0896,95.8961
1643.0538,95.7671
1644.0181,95.6553
1644.9823,95.5993
1645.9465,95.5915
1646.9108,95.5647
1647.8750,95.468
1648.8392,95.3068
1649.8035,95.1054
1650.7677,94.9043
1651.7319,94.7667
1652.6962,94.7128
1653.6604,94.6604
1654.6246,94.5853
1655.5889,94.5428
1656.5531,94.5192
1657.5173,94.4677
1658.4816,94.3698
1659.4458,94.2411
1660.4100,94.1113
1661.3743,93.9982
1662.3385,93.8955
1663.3027,93.7899
1664.2670,93.6772
1665.2312,93.5597
1666.1954,93.4438
1667.1597,93.3447
1668.1239,93.2788
1669.0881,93.2425
1670.0524,93.208
1671.0166,93.1529
1671.9808,93.0795
1672.9451,93.0019
1673.9093,92.9361
1674.8735,92.8963
1675.8378,92.888
1676.8020,92.9009
1677.7662,92.9122
1678.7305,92.897
1679.6947,92.8433
1680.6589,92.7666
1681.6232,92.7136
1682.5874,92.7331
1683.5516,92.8116
1684.5159,92.8758
1685.4801,92.9007
1686.4443,92.9121
1687.4086,92.9154
1688.3728,92.8951
1689.3370,92.8382
1690.3013,92.7415
1691.2655,92.6099
1692.2297,92.4546
1693.1940,92.2918
1694.1582,92.1411
1695.1224,92.0193
1696.0867,91.93
1697.0509,91.8562
1698.0151,91.771
1698.9794,91.6651
1699.9436,91.5626
1700.9078,91.4985
1701.8721,91.4834
1702.8363,91.4983
1703.8005,91.5153
1704.7648,91.5144
1705.7290,91.4893
1706.6932,91.4457
1707.6575,91.3961
1708.6217,91.351
1709.5859,91.3125
1710.5502,91.2764
1711.5144,91.239
1712.4786,91.2042
1713.4429,91.1896
1714.4071,91.2306
1715.3713,91.3656
1716.3356,91.5894
1717.2998,91.8281
1718.2640,92.0223
1719.2283,92.1848
1720.1925,92.346
1721.1567,92.5181
1722.1210,92.7016
1723.0852,92.8942
1724.0494,93.0919
1725.0137,93.2912
1725.9779,93.4915
1726.9421,93.6924
1727.9064,93.8894
1728.8706,94.0737
1729.8348,94.2444
1730.7991,94.4236
1731.7633,94.6567
1732.7275,94.9756
1733.6918,95.3445
1734.6560,95.6832
1735.6202,95.9508
1736.5845,96.1594
1737.5487,96.3385
1738.5129,96.5163
1739.4772,96.7111
1740.4414,96.9204
1741.4056,97.1232
1742.3699,97.2989
1743.3341,97.4426
1744.2983,97.5616
1745.2626,97.6651
1746.2268,97.7611
1747.1910,97.8573
1748.1553,97.9572
1749.1195,98.0548
1750.0837,98.1378
1751.0480,98.203
1752.0122,98.258
1752.9764,98.3095
1753.9407,98.3597
1754.9049,98.4093
1755.8691,98.4577
1756.8334,98.502
1757.7976,98.5388
1758.7618,98.5697
1759.7261,98.6017
1760.6903,98.6414
1761.6545,98.6876
1762.6188,98.7315
1763.5830,98.7642
1764.5472,98.7828
1765.5115,98.7915
1766.4757,98.7989
1767.4399,98.8162
1768.4042,98.8542
1769.3684,98.9207
1770.3326,99.0141
1771.2969,99.117
1772.2611,99.2013
1773.2253,99.2521
1774.1896,99.2777
1775.1538,99.2929
1776.1180,99.3059
1777.0823,99.321
1778.0465,99.3428
1779.0107,99.3738
1779.9750,99.4097
1780.9392,99.4425
1781.9034,99.4674
1782.8677,99.487
1783.8319,99.5065
1784.7961,99.5274
1785.7604,99.5446
1786.7246,99.5503
1787.6888,99.5413
1788.6531,99.5252
1789.6173,99.521
1790.5815,99.5493
1791.5458,99.6105
1792.5100,99.6773
1793.4742,99.7211
1794.4385,99.736
1795.4027,99.7303
1796.3669,99.7134
1797.3312,99.6953
1798.2954,99.6948
1799.2596,99.7148
1800.2239,99.7466
1801.1881,99.7795
1802.1523,99.8039
1803.1166,99.8169
1804.0808,99.8206
1805.0450,99.8191
1806.0093,99.818
1806.9735,99.8237
1807.9377,99.8413
1808.9020,99.871
1809.8662,99.9056
1810.8304,99.9342
1811.7947,99.9493
1812.7589,99.9512
1813.7231,99.9462
1814.6874,99.9414
1815.6516,99.9423
1816.6158,99.9498
1817.5801,99.9603
1818.5443,99.9676
1819.5085,99.9673
1820.4728,99.9591
1821.4370,99.9471
1822.4012,99.9375
1823.3655,99.9346
1824.3297,99.9385
1825.2939,99.9473
1826.2582,99.9602
1827.2224,99.9783
1828.1866,100.001
1829.1509,100.022
1830.1151,100.034
1831.0793,100.032
1832.0436,100.023
1833.0078,100.014
1833.9720,100.01
1834.9363,100.011
1835.9005,100.017
1836.8647,100.02
1837.8290,100.012
1838.7932,99.9884
1839.7574,99.9536
1840.7217,99.9181
1841.6859,99.8981
1842.6501,99.9067
1843.6144,99.9411
1844.5786,99.9812
1845.5428,100.008
1846.5071,100.018
1847.4713,100.018
1848.4355,100.012
1849.3998,100.003
1850.3640,99.9943
1851.3282,99.9848
1852.2925,99.9749
1853.2567,99.9648
1854.2209,99.9555
1855.1852,99.9485
1856.1494,99.9442
1857.1136,99.9422
1858.0779,99.9409
1859.0421,99.9391
1860.0063,99.9361
1860.9706,99.9319
1861.9348,99.9267
1862.8990,99.9206
1863.8633,99.9149
1864.8275,99.9141
1865.7917,99.9248
1866.7560,99.951
1867.7202,99.9852
1868.6844,100.01
1869.6487,100.014
1870.6129,100.001
1871.5771,99.9831
1872.5414,99.966
1873.5056,99.9531
1874.4698,99.9454
1875.4341,99.9423
1876.3983,99.9417
1877.3625,99.9405
1878.3268,99.9378
1879.2910,99.9347
1880.2552,99.9338
1881.2195,99.9359
1882.1837,99.9391
1883.1479,99.9399
1884.1122,99.9361
1885.0764,99.9289
1886.0406,99.9233
1887.0049,99.9247
1887.9691,99.9348
1888.9333,99.9495
1889.8976,99.9611
1890.8618,99.965
1891.8260,99.9626
1892.7903,99.9585
1893.7545,99.9574
1894.7188,99.9603
1895.6830,99.9646
1896.6472,99.966
1897.6115,99.9621
1898.5757,99.9539
1899.5399,99.9444
1900.5042,99.9366
1901.4684,99.9317
1902.4326,99.9293
1903.3969,99.9283
1904.3611,99.9286
1905.3253,99.931
1906.2896,99.9375
1907.2538,99.9484
1908.2180,99.9619
1909.1823,99.9728
1910.1465,99.9756
1911.1107,99.9675
1912.0750,99.9499
1913.0392,99.9276
1914.0034,99.9069
1914.9677,99.8936
1915.9319,99.8911
1916.8961,99.8977
1917.8604,99.9082
1918.8246,99.9186
1919.7888,99.9286
1920.7531,99.9401
1921.7173,99.9532
1922.6815,99.9642
1923.6458,99.9674
1924.6100,99.9594
1925.5742,99.9418
1926.5385,99.9206
1927.5027,99.9021
1928.4669,99.8902
1929.4312,99.8852
1930.3954,99.8845
1931.3596,99.8854
1932.3239,99.8866
1933.2881,99.8884
1934.2523,99.8912
1935.2166,99.8937
1936.1808,99.8937
1937.1450,99.8898
1938.1093,99.8833
1939.0735,99.8785
1940.0377,99.8805
1941.0020,99.8918
1941.9662,99.9095
1942.9304,99.9261
1943.8947,99.9349
1944.8589,99.9341
1945.8231,99.9261
1946.7874,99.9148
1947.7516,99.903
1948.7158,99.8924
1949.6801,99.8836
1950.6443,99.8774
1951.6085,99.8746
1952.5728,99.8757
1953.5370,99.8799
1954.5012,99.8851
1955.4655,99.8887
1956.4297,99.8898
1957.3939,99.8888
1958.3582,99.8873
1959.3224,99.8863
1960.2866,99.8857
1961.2509,99.8846
1962.2151,99.8827
1963.1793,99.8815
1964.1436,99.8829
1965.1078,99.8877
1966.0720,99.894
1967.0363,99.8975
1968.0005,99.8947
1968.9647,99.8856
1969.9290,99.8735
1970.8932,99.8633
1971.8574,99.8582
1972.8217,99.8589
1973.7859,99.8633
1974.7501,99.868
1975.7144,99.8706
1976.6786,99.8703
1977.6428,99.8679
1978.6071,99.8641
1979.5713,99.8596
1980.5355,99.8548
1981.4998,99.8504
1982.4640,99.8475
1983.4282,99.8473
1984.3925,99.85
1985.3567,99.8542
1986.3209,99.8581
1987.2852,99.8604
1988.2494,99.8612
1989.2136,99.8618
1990.1779,99.8631
1991.1421,99.8646
1992.1063,99.8644
1993.0706,99.8612
1994.0348,99.8553
1994.9990,99.8485
1995.9633,99.8428
1996.9275,99.8394
1997.8917,99.8379
1998.8560,99.8369
1999.8202,99.8351
2000.7844,99.8319
2001.7487,99.8275
2002.7129,99.8228
2003.6771,99.8184
2004.6414,99.8146
2005.6056,99.8113
2006.5698,99.8085
2007.5341,99.806
2008.4983,99.8029
2009.4625,99.7985
2010.4268,99.7925
2011.3910,99.7858
2012.3552,99.7806
2013.3195,99.7794
2014.2837,99.7833
2015.2479,99.7915
2016.2122,99.8005
2017.1764,99.8061
2018.1406,99.8053
2019.1049,99.798
2020.0691,99.7865
2021.0333,99.7743
2021.9976,99.7643
2022.9618,99.7578
2023.9260,99.7541
2024.8903,99.7518
2025.8545,99.7492
2026.8187,99.7457
2027.7830,99.7418
2028.7472,99.7387
2029.7114,99.7372
2030.6757,99.7371
2031.6399,99.7372
2032.6041,99.7362
2033.5684,99.7334
2034.5326,99.7293
2035.4968,99.7255
2036.4611,99.723
2037.4253,99.7224
2038.3895,99.7227
2039.3538,99.7226
2040.3180,99.7206
2041.2822,99.7164
2042.2465,99.7106
2043.2107,99.7046
2044.1749,99.6995
2045.1392,99.6956
2046.1034,99.6923
2047.0676,99.6886
2048.0320,99.6842
2048.9961,99.6794
2049.9604,99.6752
2050.9246,99.6722
2051.8889,99.6702
2052.8530,99.6679
2053.8174,99.6644
2054.7815,99.6594
2055.7458,99.6539
2056.7100,99.6496
2057.6743,99.6478
2058.6384,99.6487
2059.6028,99.6519
2060.5669,99.6566
2061.5313,99.6623
2062.4954,99.6685
2063.4597,99.6743
2064.4238,99.6779
2065.3882,99.6772
2066.3523,99.6718
2067.3167,99.6628
2068.2808,99.6533
2069.2451,99.6467
2070.2092,99.6451
2071.1736,99.6487
2072.1377,99.6557
2073.1021,99.6635
2074.0662,99.67
2075.0305,99.6736
2075.9946,99.6742
2076.9590,99.6722
2077.9231,99.6685
2078.8875,99.6641
2079.8516,99.6604
2080.8159,99.6583
2081.7800,99.6587
2082.7444,99.6618
2083.7085,99.6669
2084.6729,99.673
2085.6370,99.6784
2086.6013,99.6822
2087.5654,99.6841
2088.5298,99.6846
2089.4939,99.6845
2090.4583,99.6844
2091.4224,99.6842
2092.3867,99.6834
2093.3508,99.6816
2094.3152,99.6788
2095.2793,99.6755
2096.2437,99.6721
2097.2078,99.669
2098.1721,99.6662
2099.1362,99.6643
2100.1006,99.6642
2101.0647,99.6665
2102.0291,99.6712
2102.9932,99.677
2103.9575,99.6813
2104.9216,99.6819
2105.8860,99.6785
2106.8501,99.6728
2107.8145,99.6678
2108.7786,99.6659
2109.7429,99.6676
2110.7070,99.6716
2111.6714,99.6754
2112.6355,99.6767
2113.5999,99.6747
2114.5640,99.6696
2115.5283,99.6631
2116.4924,99.6567
2117.4568,99.6519
2118.4209,99.6494
2119.3853,99.649
2120.3494,99.65
2121.3137,99.6512
2122.2778,99.6518
2123.2422,99.6517
2124.2063,99.651
2125.1707,99.6502
2126.1348,99.6492
2127.0991,99.648
2128.0632,99.6462
2129.0276,99.6437
2129.9917,99.641
2130.9561,99.6391
2131.9202,99.6393
2132.8845,99.6426
2133.8486,99.6488
2134.8130,99.6565
2135.7771,99.6634
2136.7415,99.6671
2137.7056,99.6666
2138.6699,99.6625
2139.6340,99.657
2140.5984,99.6524
2141.5625,99.6499
2142.5269,99.6493
2143.4910,99.6493
2144.4553,99.6492
2145.4194,99.6492
2146.3838,99.6505
2147.3479,99.6536
2148.3123,99.658
2149.2764,99.6617
2150.2407,99.663
2151.2048,99.6612
2152.1692,99.6576
2153.1333,99.6541
2154.0977,99.6523
2155.0618,99.6524
2156.0261,99.6535
2156.9902,99.6542
2157.9546,99.6544
2158.9187,99.6547
2159.8831,99.656
2160.8472,99.6587
2161.8115,99.6622
2162.7756,99.6655
2163.7400,99.6678
2164.7041,99.6695
2165.6685,99.6709
2166.6326,99.6725
2167.5969,99.6735
2168.5610,99.673
2169.5254,99.6704
2170.4895,99.6658
2171.4539,99.6608
2172.4180,99.6569
2173.3823,99.655
2174.3464,99.6547
2175.3108,99.6549
2176.2749,99.6547
2177.2393,99.6543
2178.2034,99.6544
2179.1677,99.6561
2180.1318,99.6595
2181.0962,99.6636
2182.0603,99.6672
2183.0247,99.6691
2183.9888,99.6691
2184.9531,99.6676
2185.9172,99.6653
2186.8816,99.6626
2187.8457,99.6603
2188.8101,99.6591
2189.7742,99.6602
2190.7385,99.6642
2191.7026,99.6704
2192.6670,99.6769
2193.6311,99.681
2194.5955,99.6807
2195.5596,99.6757
2196.5239,99.668
2197.4880,99.6606
2198.4524,99.6561
2199.4165,99.656
2200.3809,99.6596
2201.3450,99.6654
2202.3093,99.6711
2203.2734,99.6745
2204.2378,99.6745
2205.2019,99.6707
2206.1663,99.6642
2207.1304,99.657
2208.0947,99.6514
2209.0588,99.6489
2210.0232,99.6497
2210.9873,99.6525
2211.9517,99.6547
2212.9158,99.6545
2213.8801,99.651
2214.8442,99.6449
2215.8086,99.6385
2216.7727,99.634
2217.7371,99.633
2218.7012,99.6356
2219.6655,99.6404
2220.6296,99.6445
2221.5940,99.6452
2222.5581,99.6409
2223.5225,99.6317
2224.4866,99.6201
2225.4509,99.6097
2226.4150,99.6032
2227.3794,99.6014
2228.3435,99.6028
2229.3079,99.6044
2230.2720,99.604
2231.2363,99.6008
2232.2004,99.5964
2233.1648,99.5933
2234.1289,99.593
2235.0933,99.5953
2236.0574,99.5977
2237.0217,99.5973
2237.9858,99.5923
2238.9502,99.5826
2239.9143,99.5701
2240.8787,99.5573
2241.8428,99.5464
2242.8071,99.5388
2243.7712,99.5344
2244.7356,99.5325
2245.6997,99.532
2246.6641,99.5315
2247.6282,99.5299
2248.5925,99.5262
2249.5566,99.5203
2250.5210,99.5125
2251.4851,99.5039
2252.4495,99.4951
2253.4136,99.4867
2254.3779,99.4785
2255.3420,99.4704
2256.3064,99.4623
2257.2705,99.4545
2258.2349,99.4476
2259.1990,99.4418
2260.1633,99.4373
2261.1274,99.4334
2262.0918,99.4298
2263.0559,99.426
2264.0203,99.4217
2264.9844,99.4166
2265.9487,99.4108
2266.9128,99.404
2267.8772,99.3961
2268.8413,99.3871
2269.8057,99.3771
2270.7698,99.3669
2271.7341,99.3579
2272.6982,99.3517
2273.6626,99.3498
2274.6267,99.3526
2275.5911,99.3589
2276.5552,99.3661
2277.5195,99.3712
2278.4836,99.3722
2279.4480,99.3686
2280.4121,99.3612
2281.3765,99.3513
2282.3406,99.3391
2283.3049,99.324
2284.2690,99.305
2285.2334,99.274
2286.1975,99.2389
2287.1619,99.2009
2288.1260,99.1611
2289.0903,99.1199
2290.0544,99.0772
2291.0188,99.0332
2291.9829,98.9888
2292.9473,98.9454
2293.9114,98.9042
2294.8757,98.865
2295.8398,98.8259
2296.8042,98.7837
2297.7683,98.736
2298.7327,98.6816
2299.6968,98.6212
2300.6611,98.5561
2301.6252,98.4873
2302.5896,98.4149
2303.5537,98.3385
2304.5181,98.2582
2305.4822,98.1748
2306.4465,98.0898
2307.4106,98.0048
2308.3750,97.9208
2309.3391,97.8388
2310.3035,97.7596
2311.2676,97.6836
2312.2319,97.6107
2313.1960,97.5391
2314.1604,97.4662
2315.1245,97.3896
2316.0889,97.3085
2317.0530,97.2247
2318.0173,97.1423
2318.9814,97.0661
2319.9458,97.0002
2320.9099,96.9478
2321.8743,96.9124
2322.8384,96.8978
2323.8027,96.9065
2324.7668,96.9372
2325.7312,96.9833
2326.6953,97.0353
2327.6597,97.0834
2328.6238,97.1205
2329.5881,97.1442
2330.5522,97.157
2331.5166,97.1643
2332.4807,97.1711
2333.4451,97.18
2334.4092,97.1914
2335.3735,97.2057
2336.3376,97.2235
2337.3020,97.2457
2338.2661,97.2729
2339.2305,97.306
2340.1946,97.3446
2341.1589,97.3787
2342.1230,97.3804
2343.0874,97.3182
2344.0515,97.2017
2345.0159,97.0921
2345.9800,97.0383
2346.9443,97.0289
2347.9084,97.017
2348.8728,96.9665
2349.8369,96.8808
2350.8013,96.8085
2351.7654,96.8309
2352.7297,97.0225
2353.6938,97.3944
2354.6582,97.871
2355.6223,98.3501
2356.5867,98.782
2357.5508,99.1677
2358.5151,99.5013
2359.4792,99.745
2360.4436,99.8554
2361.4077,99.814
2362.3721,99.6488
2363.3362,99.373
2364.3005,99.001
2365.2646,98.5837
2366.2290,98.1762
2367.1931,97.8197
2368.1575,97.533
2369.1216,97.3192
2370.0859,97.1742
2371.0500,97.0928
2372.0144,97.0697
2372.9785,97.1003
2373.9429,97.1801
2374.9070,97.3043
2375.8713,97.4669
2376.8354,97.6596
2377.7998,97.8718
2378.7639,98.0918
2379.7283,98.3083
2380.6924,98.5116
2381.6567,98.6951
2382.6208,98.8555
2383.5852,98.9924
2384.5493,99.1074
2385.5137,99.2035
2386.4778,99.2834
2387.4421,99.3499
2388.4063,99.4047
2389.3706,99.4494
2390.3347,99.4857
2391.2991,99.5161
2392.2632,99.5436
2393.2275,99.5717
2394.1917,99.6033
2395.1560,99.6395
2396.1201,99.6793
2397.0845,99.7195
2398.0486,99.7569
2399.0129,99.7892
2399.9771,99.8168
2400.9414,99.8324
2401.9055,99.8303
2402.8699,99.8316
2403.8340,99.8361
2404.7983,99.8417
2405.7625,99.8462
2406.7268,99.8484
2407.6909,99.8487
2408.6553,99.8484
2409.6194,99.8484
2410.5837,99.8488
2411.5479,99.8494
2412.5122,99.8498
2413.4763,99.8504
2414.4407,99.8516
2415.4048,99.854
2416.3691,99.8578
2417.3333,99.8628
2418.2976,99.8686
2419.2617,99.8742
2420.2261,99.8787
2421.1902,99.8809
2422.1545,99.8803
2423.1187,99.8779
2424.0830,99.8755
2425.0471,99.8757
2426.0115,99.8798
2426.9756,99.8872
2427.9399,99.8955
2428.9041,99.9021
2429.8684,99.9051
2430.8325,99.9049
2431.7969,99.9037
2432.7610,99.9041
2433.7253,99.9076
2434.6895,99.9138
2435.6538,99.9202
2436.6179,99.9242
2437.5823,99.9238
2438.5464,99.9195
2439.5107,99.9136
2440.4749,99.9099
2441.4392,99.9111
2442.4033,99.9183
2443.3677,99.9302
2444.3318,99.9439
2445.2961,99.956
2446.2603,99.9643
2447.2246,99.968
2448.1887,99.9683
2449.1531,99.9674
2450.1172,99.967
2451.0815,99.9681
2452.0457,99.9701
2453.0100,99.9714
2453.9741,99.9709
2454.9385,99.9686
2455.9026,99.9659
2456.8669,99.9649
2457.8311,99.9673
2458.7954,99.9733
2459.7595,99.981
2460.7239,99.9879
2461.6880,99.9919
2462.6523,99.9925
2463.6165,99.9911
2464.5808,99.9901
2465.5449,99.9916
2466.5093,99.9967
2467.4734,100.004
2468.4377,100.013
2469.4019,100.019
2470.3662,100.021
2471.3303,100.02
2472.2947,100.015
2473.2588,100.011
2474.2231,100.009
2475.1873,100.013
2476.1516,100.022
2477.1157,100.035
2478.0801,100.048
2479.0442,100.059
2480.0085,100.065
2480.9727,100.068
2481.9370,100.068
2482.9011,100.068
2483.8655,100.07
2484.8296,100.072
2485.7939,100.075
2486.7581,100.078
2487.7224,100.08
2488.6865,100.081
2489.6509,100.083
2490.6150,100.084
2491.5793,100.084
2492.5435,100.083
2493.5078,100.079
2494.4719,100.076
2495.4363,100.074
2496.4004,100.073
2497.3647,100.076
2498.3289,100.08
2499.2932,100.086
2500.2573,100.093
2501.2217,100.101
2502.1858,100.107
2503.1501,100.111
2504.1143,100.111
2505.0786,100.107
2506.0427,100.102
2507.0071,100.098
2507.9712,100.098
2508.9355,100.102
2509.8997,100.11
2510.8640,100.117
2511.8281,100.121
2512.7925,100.122
2513.7566,100.122
2514.7209,100.124
2515.6851,100.128
2516.6494,100.135
2517.6135,100.142
2518.5779,100.149
2519.5420,100.155
2520.5063,100.16
2521.4705,100.165
2522.4348,100.168
2523.3989,100.167
2524.3633,100.163
2525.3274,100.156
2526.2917,100.151
2527.2559,100.151
2528.2202,100.155
2529.1843,100.165
2530.1487,100.175
2531.1128,100.184
2532.0771,100.191
2533.0413,100.196
2534.0056,100.199
2534.9697,100.202
2535.9341,100.204
2536.8982,100.205
2537.8625,100.208
2538.8267,100.213
2539.7910,100.22
2540.7551,100.228
2541.7195,100.235
2542.6836,100.24
2543.6479,100.24
2544.6121,100.239
2545.5764,100.237
2546.5405,100.237
2547.5049,100.239
2548.4690,100.244
2549.4333,100.25
2550.3975,100.257
2551.3618,100.264
2552.3259,100.269
2553.2903,100.27
2554.2544,100.269
2555.2188,100.268
2556.1829,100.269
2557.1472,100.274
2558.1113,100.284
2559.0757,100.296
2560.0398,100.307
2561.0042,100.315
2561.9683,100.319
2562.9326,100.319
2563.8967,100.318
2564.8611,100.317
2565.8252,100.317
2566.7896,100.318
2567.7537,100.322
2568.7180,100.327
2569.6821,100.335
2570.6465,100.344
2571.6106,100.352
2572.5750,100.357
2573.5391,100.358
2574.5034,100.357
2575.4675,100.357
2576.4319,100.359
2577.3960,100.364
2578.3604,100.37
2579.3245,100.374
2580.2888,100.374
2581.2529,100.372
2582.2173,100.369
2583.1814,100.368
2584.1458,100.371
2585.1099,100.378
2586.0742,100.385
2587.0383,100.391
2588.0027,100.394
2588.9668,100.395
2589.9312,100.394
2590.8953,100.394
2591.8596,100.395
2592.8237,100.397
2593.7881,100.4
2594.7522,100.404
2595.7166,100.409
2596.6807,100.413
2597.6450,100.418
2598.6091,100.423
2599.5735,100.427
2600.5376,100.433
2601.5020,100.438
2602.4661,100.444
2603.4304,100.448
2604.3945,100.45
2605.3589,100.45
2606.3230,100.449
2607.2874,100.448
2608.2515,100.449
2609.2158,100.452
2610.1799,100.455
2611.1443,100.46
2612.1084,100.463
2613.0728,100.467
2614.0369,100.47
2615.0012,100.474
2615.9653,100.478
2616.9297,100.483
2617.8938,100.488
2618.8582,100.494
2619.8223,100.499
2620.7866,100.504
2621.7507,100.507
2622.7151,100.508
2623.6792,100.507
2624.6436,100.503
2625.6077,100.498
2626.5720,100.494
2627.5361,100.492
2628.5005,100.493
2629.4646,100.497
2630.4290,100.503
2631.3931,100.508
2632.3574,100.511
2633.3215,100.512
2634.2859,100.514
2635.2500,100.518
2636.2144,100.525
2637.1785,100.534
2638.1428,100.544
2639.1069,100.552
2640.0713,100.558
2641.0354,100.561
2641.9998,100.562
2642.9639,100.562
2643.9282,100.56
2644.8923,100.558
2645.8567,100.558
2646.8208,100.56
2647.7852,100.565
2648.7493,100.572
2649.7136,100.58
2650.6777,100.586
2651.6421,100.589
2652.6062,100.59
2653.5706,100.589
2654.5347,100.588
2655.4990,100.587
2656.4631,100.589
2657.4275,100.592
2658.3916,100.597
2659.3560,100.604
2660.3201,100.61
2661.2844,100.617
2662.2485,100.623
2663.2129,100.627
2664.1770,100.629
2665.1414,100.628
2666.1055,100.625
2667.0698,100.622
2668.0339,100.619
2668.9983,100.619
2669.9624,100.623
2670.9268,100.63
2671.8909,100.637
2672.8552,100.643
2673.8193,100.647
2674.7837,100.649
2675.7478,100.653
2676.7122,100.658
2677.6763,100.665
2678.6406,100.672
2679.6047,100.679
2680.5691,100.685
2681.5332,100.688
2682.4976,100.688
2683.4617,100.685
2684.4260,100.68
2685.3901,100.672
2686.3545,100.665
2687.3186,100.659
2688.2830,100.656
2689.2471,100.655
2690.2114,100.656
2691.1755,100.656
2692.1399,100.654
2693.1040,100.651
2694.0684,100.647
2695.0325,100.645
2695.9968,100.645
2696.9609,100.646
2697.9253,100.647
2698.8894,100.647
2699.8538,100.643
2700.8179,100.635
2701.7822,100.626
2702.7463,100.617
2703.7107,100.61
2704.6748,100.606
2705.6392,100.603
2706.6033,100.599
2707.5676,100.594
2708.5317,100.587
2709.4961,100.579
2710.4602,100.572
2711.4246,100.566
2712.3887,100.562
2713.3530,100.56
2714.3171,100.558
2715.2815,100.557
2716.2456,100.558
2717.2100,100.561
2718.1741,100.565
2719.1384,100.569
2720.1025,100.57
2721.0669,100.567
2722.0310,100.56
2722.9954,100.549
2723.9595,100.535
2724.9238,100.522
2725.8879,100.511
2726.8523,100.506
2727.8164,100.506
2728.7808,100.509
2729.7449,100.512
2730.7092,100.514
2731.6733,100.513
2732.6377,100.511
2733.6018,100.51
2734.5662,100.509
2735.5303,100.507
2736.4946,100.502
2737.4587,100.496
2738.4231,100.488
2739.3872,100.481
2740.3516,100.477
2741.3157,100.478
2742.2800,100.483
2743.2441,100.491
2744.2085,100.499
2745.1726,100.505
2746.1370,100.509
2747.1011,100.51
2748.0654,100.507
2749.0295,100.502
2749.9939,100.499
2750.9580,100.499
2751.9224,100.504
2752.8865,100.512
2753.8508,100.521
2754.8149,100.528
2755.7793,100.528
2756.7434,100.524
2757.7078,100.518
2758.6719,100.514
2759.6362,100.513
2760.6003,100.517
2761.5647,100.523
2762.5288,100.528
2763.4932,100.529
2764.4573,100.528
2765.4216,100.526
2766.3857,100.526
2767.3501,100.53
2768.3142,100.535
2769.2786,100.538
2770.2427,100.536
2771.2070,100.526
2772.1711,100.509
2773.1355,100.49
2774.0996,100.472
2775.0640,100.459
2776.0281,100.451
2776.9924,100.445
2777.9565,100.442
2778.9209,100.438
2779.8850,100.434
2780.8494,100.43
2781.8135,100.427
2782.7778,100.424
2783.7419,100.421
2784.7063,100.416
2785.6704,100.409
2786.6348,100.399
2787.5989,100.386
2788.5632,100.37
2789.5273,100.351
2790.4917,100.329
2791.4558,100.306
2792.4202,100.287
2793.3843,100.272
2794.3486,100.261
2795.3127,100.248
2796.2771,100.234
2797.2412,100.216
2798.2056,100.191
2799.1697,100.161
2800.1340,100.129
2801.0981,100.098
2802.0625,100.07
2803.0266,100.046
2803.9910,100.025
2804.9551,100.004
2805.9194,99.9796
2806.8835,99.9496
2807.8479,99.9133
2808.8120,99.8709
2809.7764,99.8241
2810.7405,99.7755
2811.7048,99.7278
2812.6689,99.6829
2813.6333,99.6411
2814.5974,99.6001
2815.5618,99.557
2816.5259,99.5087
2817.4902,99.4541
2818.4543,99.3939
2819.4187,99.3296
2820.3828,99.2622
2821.3472,99.191
2822.3113,99.1141
2823.2756,99.0294
2824.2397,98.9367
2825.2041,98.837
2826.1682,98.7324
2827.1326,98.625
2828.0967,98.5155
2829.0610,98.4043
2830.0251,98.2915
2830.9895,98.1781
2831.9536,98.0657
2832.9180,97.9562
2833.8821,97.8517
2834.8464,97.7537
2835.8105,97.664
2836.7749,97.5844
2837.7390,97.5172
2838.7034,97.4641
2839.6675,97.4269
2840.6318,97.4062
2841.5959,97.4023
2842.5603,97.4146
2843.5244,97.442
2844.4888,97.4832
2845.4529,97.5367
2846.4172,97.6001
2847.3813,97.6696
2848.3457,97.7387
2849.3098,97.7989
2850.2742,97.841
2851.2383,97.8578
2852.2026,97.8457
2853.1667,97.8062
2854.1311,97.7435
2855.0952,97.6633
2856.0596,97.5703
2857.0237,97.4681
2857.9880,97.3589
2858.9521,97.2449
2859.9165,97.128
2860.8806,97.0097
2861.8450,96.8915
2862.8091,96.7751
2863.7734,96.6631
2864.7375,96.5592
2865.7019,96.4677
2866.6660,96.3918
2867.6304,96.3323
2868.5945,96.2872
2869.5588,96.2515
2870.5229,96.2187
2871.4873,96.1831
2872.4514,96.1416
2873.4158,96.0946
2874.3799,96.0461
2875.3442,96.001
2876.3083,95.9624
2877.2727,95.9287
2878.2368,95.8949
2879.2012,95.8545
2880.1653,95.8045
2881.1296,95.7471
2882.0938,95.6899
2883.0581,95.6417
2884.0222,95.6087
2884.9866,95.5914
2885.9507,95.5849
2886.9150,95.5815
2887.8792,95.5736
2888.8435,95.5567
2889.8076,95.5309
2890.7720,95.4994
2891.7361,95.4668
2892.7004,95.4357
2893.6646,95.4036
2894.6289,95.364
2895.5930,95.309
2896.5574,95.2351
2897.5215,95.1476
2898.4858,95.0597
2899.4500,94.9878
2900.4143,94.9441
2901.3784,94.9307
2902.3428,94.9397
2903.3069,94.9586
2904.2712,94.9771
2905.2354,94.9912
2906.1997,95.0028
2907.1638,95.0163
2908.1282,95.0357
2909.0923,95.0637
2910.0566,95.1014
2911.0208,95.1497
2911.9851,95.2083
2912.9492,95.274
2913.9136,95.3406
2914.8777,95.3995
2915.8420,95.4426
2916.8062,95.4655
2917.7705,95.4678
2918.7346,95.4527
2919.6990,95.4248
2920.6631,95.3881
2921.6274,95.3449
2922.5916,95.2959
2923.5559,95.2404
2924.5200,95.1765
2925.4844,95.1017
2926.4485,95.014
2927.4128,94.9135
2928.3770,94.8032
2929.3413,94.6888
2930.3054,94.5772
2931.2698,94.4746
2932.2339,94.3852
2933.1982,94.3111
2934.1624,94.2538
2935.1267,94.2145
2936.0908,94.1938
2937.0552,94.1914
2938.0193,94.2051
2938.9836,94.2313
2939.9478,94.2663
2940.9121,94.3085
2941.8762,94.3581
2942.8406,94.4169
2943.8047,94.4853
2944.7690,94.5606
2945.7332,94.6373
2946.6975,94.708
2947.6616,94.7669
2948.6260,94.8116
2949.5901,94.8438
2950.5544,94.868
2951.5186,94.8889
2952.4829,94.9097
2953.4470,94.9311
2954.4114,94.9522
2955.3755,94.9717
2956.3398,94.9893
2957.3040,95.0048
2958.2683,95.0178
2959.2324,95.0269
2960.1968,95.0297
2961.1609,95.0244
2962.1252,95.0104
2963.0894,94.9889
2964.0537,94.9621
2965.0178,94.9321
2965.9822,94.9008
2966.9463,94.8703
2967.9106,94.8444
2968.8748,94.8281
2969.8391,94.827
2970.8032,94.8447
2971.7676,94.8815
2972.7317,94.9349
2973.6960,95.0007
2974.6602,95.0755
2975.6245,95.1573
2976.5886,95.2447
2977.5530,95.3359
2978.5171,95.4275
2979.4814,95.5153
2980.4456,95.5951
2981.4099,95.6639
2982.3740,95.7195
2983.3384,95.7614
2984.3025,95.7921
2985.2668,95.8189
2986.2310,95.8544
2987.1953,95.9129
2988.1594,96.0042
2989.1238,96.1277
2990.0879,96.2708
2991.0522,96.4141
2992.0164,96.5401
2992.9807,96.6403
2993.9448,96.7173
2994.9092,96.7812
2995.8733,96.843
2996.8376,96.9097
2997.8018,96.9828
2998.7661,97.0608
2999.7302,97.1415
3000.6946,97.2238
3001.6587,97.3071
3002.6230,97.3911
3003.5872,97.4761
3004.5515,97.564
3005.5156,97.6582
3006.4800,97.7621
3007.4441,97.8767
3008.4084,97.9986
3009.3726,98.1211
3010.3369,98.2368
3011.3010,98.341
3012.2654,98.4336
3013.2295,98.5173
3014.1938,98.5953
3015.1580,98.6691
3016.1223,98.7388
3017.0864,98.8045
3018.0508,98.8678
3019.0149,98.9311
3019.9792,98.9958
3020.9434,99.0603
3021.9077,99.1206
3022.8718,99.1725
3023.8362,99.2145
3024.8003,99.2505
3025.7646,99.2875
3026.7288,99.3331
3027.6931,99.3909
3028.6572,99.4587
3029.6216,99.5286
3030.5857,99.5905
3031.5500,99.6365
3032.5142,99.6646
3033.4785,99.6792
3034.4426,99.6894
3035.4070,99.7044
3036.3711,99.7297
3037.3354,99.7649
3038.2996,99.804
3039.2639,99.8388
3040.2280,99.8619
3041.1924,99.8706
3042.1565,99.8675
3043.1208,99.8536
3044.0850,99.8411
3045.0493,99.836
3046.0134,99.8392
3046.9778,99.8476
3047.9419,99.8562
3048.9063,99.8609
3049.8704,99.8599
3050.8347,99.8541
3051.7988,99.8456
3052.7632,99.8365
3053.7273,99.8276
3054.6917,99.819
3055.6558,99.8103
3056.6201,99.8013
3057.5842,99.7917
3058.5486,99.7813
3059.5127,99.7703
3060.4771,99.7597
3061.4412,99.7516
3062.4055,99.748
3063.3696,99.7491
3064.3340,99.7527
3065.2981,99.7541
3066.2625,99.7487
3067.2266,99.7345
3068.1909,99.7131
3069.1550,99.6889
3070.1194,99.6667
3071.0835,99.6495
3072.0479,99.6387
3073.0120,99.6339
3073.9763,99.6343
3074.9404,99.6389
3075.9048,99.6459
3076.8689,99.6532
3077.8333,99.658
3078.7974,99.6586
3079.7617,99.6552
3080.7258,99.6489
3081.6902,99.6417
3082.6543,99.6345
3083.6187,99.6271
3084.5828,99.6192
3085.5471,99.6102
3086.5112,99.6004
3087.4756,99.5899
3088.4397,99.5792
3089.4041,99.5693
3090.3682,99.5617
3091.3325,99.5584
3092.2966,99.5603
3093.2610,99.566
3094.2251,99.5715
3095.1895,99.572
3096.1536,99.5646
3097.1179,99.5503
3098.0820,99.5332
3099.0464,99.5175
3100.0105,99.5046
3100.9749,99.4925
3101.9390,99.4778
3102.9033,99.4586
3103.8674,99.4367
3104.8318,99.4161
3105.7959,99.3999
3106.7603,99.3883
3107.7244,99.3778
3108.6887,99.3642
3109.6528,99.3452
3110.6172,99.3221
3111.5813,99.2989
3112.5457,99.2795
3113.5098,99.266
3114.4741,99.2575
3115.4382,99.2513
3116.4026,99.2451
3117.3667,99.2376
3118.3311,99.2287
3119.2952,99.2187
3120.2595,99.2078
3121.2236,99.1959
3122.1880,99.1823
3123.1521,99.1663
3124.1165,99.147
3125.0806,99.1239
3126.0449,99.0973
3127.0090,99.0693
3127.9734,99.0439
3128.9375,99.0255
3129.9019,99.0168
3130.8660,99.0171
3131.8303,99.0214
3132.7944,99.0226
3133.7588,99.015
3134.7229,98.9967
3135.6873,98.9711
3136.6514,98.9437
3137.6157,98.9198
3138.5798,98.9009
3139.5442,98.8856
3140.5083,98.8704
3141.4727,98.8526
3142.4368,98.832
3143.4011,98.8102
3144.3652,98.79
3145.3296,98.7736
3146.2937,98.7622
3147.2581,98.755
3148.2222,98.7503
3149.1865,98.7461
3150.1506,98.7401
3151.1150,98.7299
3152.0791,98.7137
3153.0435,98.6897
3154.0076,98.6573
3154.9719,98.618
3155.9360,98.5756
3156.9004,98.5354
3157.8645,98.5019
3158.8289,98.4774
3159.7930,98.4606
3160.7573,98.4486
3161.7214,98.4383
3162.6858,98.4284
3163.6499,98.4189
3164.6143,98.4098
3165.5784,98.3993
3166.5427,98.3847
3167.5068,98.3638
3168.4712,98.3366
3169.4353,98.2248
3170.3997,98.1965
3171.3638,98.1744
3172.3281,98.1599
3173.2922,98.1519
3174.2566,98.1475
3175.2207,98.143
3176.1851,98.1344
3177.1492,98.1185
3178.1135,98.095
3179.0776,98.0671
3180.0420,98.0409
3181.0061,98.0218
3181.9705,98.0117
3182.9346,98.0079
3183.8989,98.0048
3184.8630,97.9973
3185.8274,97.9839
3186.7915,97.966
3187.7559,97.9459
3188.7200,97.9232
3189.6843,97.8956
3190.6484,97.8611
3191.6128,97.8213
3192.5769,97.7818
3193.5413,97.7496
3194.5054,97.7289
3195.4697,97.7185
3196.4338,97.7128
3197.3982,97.7058
3198.3623,97.6954
3199.3267,97.6836
3200.2908,97.6742
3201.2551,97.6684
3202.2192,97.6632
3203.1836,97.652
3204.1477,97.6296
3205.1121,97.5959
3206.0762,97.5569
3207.0405,97.5218
3208.0046,97.4983
3208.9690,97.4885
3209.9331,97.488
3210.8975,97.4885
3211.8616,97.4831
3212.8259,97.4697
3213.7900,97.4516
3214.7544,97.4354
3215.7185,97.4259
3216.6829,97.423
3217.6470,97.4221
3218.6113,97.4162
3219.5754,97.4001
3220.5398,97.3728
3221.5039,97.3372
3222.4683,97.2983
3223.4324,97.2607
3224.3967,97.2279
3225.3608,97.2025
3226.3252,97.1871
3227.2893,97.1829
3228.2537,97.1886
3229.2178,97.1993
3230.1821,97.2083
3231.1462,97.2093
3232.1106,97.1996
3233.0747,97.18
3234.0391,97.1535
3235.0032,97.123
3235.9675,97.0908
3236.9316,97.0583
3237.8960,97.0277
3238.8601,97.0016
3239.8245,96.9819
3240.7886,96.9683
3241.7529,96.9586
3242.7170,96.9497
3243.6814,96.939
3244.6455,96.9252
3245.6099,96.9075
3246.5740,96.8853
3247.5383,96.8585
3248.5024,96.8281
3249.4668,96.7975
3250.4309,96.7715
3251.3953,96.7541
3252.3594,96.7454
3253.3237,96.7414
3254.2878,96.7356
3255.2522,96.7228
3256.2163,96.7014
3257.1807,96.6735
3258.1448,96.6427
3259.1091,96.6123
3260.0732,96.5837
3261.0376,96.5574
3262.0017,96.5328
3262.9661,96.5093
3263.9302,96.4859
3264.8945,96.4618
3265.8586,96.4368
3266.8230,96.4114
3267.7871,96.3876
3268.7515,96.3677
3269.7156,96.3532
3270.6799,96.3439
3271.6440,96.3377
3272.6084,96.3315
3273.5725,96.3219
3274.5369,96.3068
3275.5010,96.2859
3276.4653,96.2608
3277.4294,96.2345
3278.3938,96.2103
3279.3579,96.1908
3280.3223,96.177
3281.2864,96.1684
3282.2507,96.1631
3283.2148,96.1588
3284.1792,96.1534
3285.1433,96.1447
3286.1077,96.1313
3287.0718,96.1121
3288.0361,96.0879
3289.0002,96.0616
3289.9646,96.0378
3290.9287,96.0205
3291.8931,96.0108
3292.8572,96.0054
3293.8215,95.998
3294.7856,95.9827
3295.7500,95.9574
3296.7141,95.9262
3297.6785,95.8974
3298.6426,95.8792
3299.6069,95.8753
3300.5710,95.883
3301.5354,95.8945
3302.4995,95.9012
3303.4639,95.8981
3304.4280,95.885
3305.3923,95.8657
3306.3564,95.8447
3307.3208,95.8243
3308.2849,95.8046
3309.2493,95.7848
3310.2134,95.7648
3311.1777,95.7462
3312.1418,95.7306
3313.1062,95.7184
3314.0703,95.7078
3315.0347,95.6959
3315.9988,95.6809
3316.9631,95.6628
3317.9272,95.6432
3318.8916,95.6242
3319.8557,95.6063
3320.8201,95.589
3321.7842,95.5715
3322.7485,95.555
3323.7126,95.542
3324.6770,95.5355
3325.6411,95.5355
3326.6055,95.5382
3327.5696,95.5361
3328.5339,95.5226
3329.4980,95.4953
3330.4624,95.458
3331.4265,95.4194
3332.3909,95.3888
3333.3550,95.372
3334.3193,95.3692
3335.2834,95.3763
3336.2478,95.3878
3337.2119,95.3997
3338.1763,95.4097
3339.1404,95.4157
3340.1047,95.4154
3341.0688,95.4061
3342.0332,95.388
3342.9973,95.3652
3343.9617,95.3444
3344.9258,95.3317
3345.8901,95.329
3346.8542,95.3327
3347.8186,95.3361
3348.7827,95.3335
3349.7471,95.3232
3350.7112,95.3072
3351.6755,95.2889
3352.6396,95.271
3353.6040,95.2546
3354.5681,95.2406
3355.5325,95.23
3356.4966,95.2241
3357.4609,95.2232
3358.4250,95.2253
3359.3894,95.227
3360.3535,95.2259
3361.3179,95.2217
3362.2820,95.2167
3363.2463,95.214
3364.2104,95.2157
3365.1748,95.2217
3366.1389,95.2297
3367.1033,95.237
3368.0674,95.2414
3369.0317,95.2424
3369.9958,95.2409
3370.9602,95.2395
3371.9243,95.2407
3372.8887,95.2451
3373.8528,95.2505
3374.8171,95.2523
3375.7813,95.2455
3376.7456,95.2285
3377.7097,95.2043
3378.6741,95.1791
3379.6382,95.1594
3380.6025,95.1486
3381.5667,95.1465
3382.5310,95.1499
3383.4951,95.1547
3384.4595,95.1571
3385.4236,95.1541
3386.3879,95.1443
3387.3521,95.1288
3388.3164,95.1115
3389.2805,95.0986
3390.2449,95.0949
3391.2090,95.1013
3392.1733,95.1131
3393.1375,95.1228
3394.1018,95.1248
3395.0659,95.1187
3396.0303,95.1082
3396.9944,95.0982
3397.9587,95.0902
3398.9229,95.082
3399.8872,95.0698
3400.8513,95.0527
3401.8157,95.0343
3402.7798,95.0218
3403.7441,95.0208
3404.7083,95.0315
3405.6726,95.0472
3406.6367,95.0575
3407.6011,95.0547
3408.5652,95.0381
3409.5295,95.0151
3410.4937,94.9958
3411.4580,94.9873
3412.4221,94.9892
3413.3865,94.9947
3414.3506,94.9958
3415.3149,94.9895
3416.2791,94.9804
3417.2434,94.9769
3418.2075,94.9853
3419.1719,95.0051
3420.1360,95.0284
3421.1003,95.0461
3422.0645,95.0536
3423.0288,95.0537
3423.9929,95.0532
3424.9573,95.0583
3425.9214,95.071
3426.8857,95.0884
3427.8499,95.1037
3428.8142,95.1103
3429.7783,95.1054
3430.7427,95.0921
3431.7068,95.0785
3432.6711,95.0738
3433.6353,95.0825
3434.5996,95.1022
3435.5637,95.1234
3436.5281,95.1356
3437.4922,95.1319
3438.4565,95.1129
3439.4207,95.0849
3440.3850,95.056
3441.3491,95.0332
3442.3135,95.022
3443.2776,95.0268
3444.2419,95.0517
3445.2061,95.0971
3446.1704,95.1554
3447.1345,95.2114
3448.0989,95.2492
3449.0630,95.2606
3450.0273,95.2499
3450.9915,95.2303
3451.9558,95.2174
3452.9199,95.2211
3453.8843,95.2406
3454.8484,95.2662
3455.8127,95.2857
3456.7769,95.2929
3457.7412,95.2913
3458.7053,95.2913
3459.6697,95.3024
3460.6338,95.3274
3461.5981,95.3602
3462.5623,95.3905
3463.5266,95.4111
3464.4907,95.423
3465.4551,95.4337
3466.4192,95.4518
3467.3835,95.4798
3468.3477,95.5119
3469.3120,95.5378
3470.2761,95.5497
3471.2405,95.5477
3472.2046,95.5393
3473.1689,95.5344
3474.1331,95.5383
3475.0974,95.5498
3476.0615,95.5636
3477.0259,95.5766
3477.9900,95.591
3478.9543,95.6128
3479.9185,95.6459
3480.8828,95.687
3481.8469,95.7266
3482.8113,95.7552
3483.7754,95.7698
3484.7397,95.7751
3485.7039,95.7796
3486.6682,95.7903
3487.6323,95.8082
3488.5967,95.8283
3489.5608,95.8443
3490.5251,95.8535
3491.4893,95.859
3492.4536,95.8679
3493.4177,95.8865
3494.3821,95.9145
3495.3462,95.9438
3496.3105,95.9632
3497.2747,95.9673
3498.2390,95.9616
3499.2031,95.9622
3500.1675,95.9871
3501.1316,96.0442
3502.0959,96.1208
3503.0601,96.1892
3504.0244,96.2259
3504.9885,96.2262
3505.9529,96.2044
3506.9170,96.1834
3507.8813,96.1833
3508.8455,96.2119
3509.8098,96.2614
3510.7739,96.3154
3511.7383,96.3607
3512.7024,96.3933
3513.6667,96.4162
3514.6309,96.4337
3515.5952,96.4475
3516.5593,96.4563
3517.5237,96.4593
3518.4878,96.4587
3519.4521,96.4611
3520.4163,96.4743
3521.3806,96.5029
3522.3447,96.5465
3523.3091,96.6015
3524.2732,96.6663
3525.2375,96.7426
3526.2017,96.8312
3527.1660,96.9258
3528.1301,97.0116
3529.0945,97.0727
3530.0586,97.1016
3531.0229,97.103
3531.9871,97.0906
3532.9514,97.0814
3533.9155,97.0894
3534.8799,97.1206
3535.8440,97.1704
3536.8083,97.2269
3537.7725,97.2774
3538.7368,97.3139
3539.7009,97.3358
3540.6653,97.351
3541.6294,97.377
3542.5938,97.4353
3543.5579,97.5372
3544.5222,97.6686
3545.4863,97.7932
3546.4507,97.878
3547.4148,97.9154
3548.3792,97.9221
3549.3433,97.9258
3550.3076,97.9546
3551.2717,98.0251
3552.2361,98.1321
3553.2002,98.2511
3554.1646,98.354
3555.1287,98.4266
3556.0930,98.4726
3557.0571,98.5079
3558.0215,98.5479
3558.9856,98.593
3559.9500,98.6256
3560.9141,98.6213
3561.8784,98.572
3562.8425,98.5035
3563.8069,98.4778
3564.7710,98.5631
3565.7354,98.7658
3566.6995,98.9913
3567.6638,99.1297
3568.6279,99.1636
3569.5923,99.137
3570.5564,99.0837
3571.5208,99.0224
3572.4849,98.974
3573.4492,98.9627
3574.4133,99.0016
3575.3777,99.0846
3576.3418,99.1917
3577.3062,99.3001
3578.2703,99.3898
3579.2346,99.4418
3580.1987,99.4376
3581.1631,99.3653
3582.1272,99.2294
3583.0916,99.0665
3584.0557,98.9456
3585.0200,98.9478
3585.9841,99.101
3586.9485,99.3237
3587.9126,99.4843
3588.8770,99.5257
3589.8411,99.477
3590.8054,99.3873
3591.7695,99.301
3592.7339,99.2572
3593.6980,99.2749
3594.6624,99.3382
3595.6265,99.412
3596.5908,99.4765
3597.5549,99.5382
3598.5193,99.6117
3599.4834,99.6958
3600.4478,99.7643
3601.4119,99.7829
3602.3762,99.7343
3603.3403,99.629
3604.3047,99.503
3605.2688,99.4058
3606.2332,99.3772
3607.1973,99.4194
3608.1616,99.4959
3609.1257,99.5672
3610.0901,99.6199
3611.0542,99.6582
3612.0186,99.6802
3612.9829,99.6716
3613.9470,99.6196
3614.9114,99.5341
3615.8755,99.4566
3616.8398,99.4455
3617.8040,99.5378
3618.7683,99.7058
3619.7324,99.8678
3620.6968,99.9539
3621.6609,99.9362
3622.6252,99.8036
3623.5894,99.5558
3624.5537,99.2355
3625.5178,98.9578
3626.4822,98.8897
3627.4463,99.1234
3628.4106,99.5193
3629.3748,99.816
3630.3391,99.923
3631.3032,99.9074
3632.2676,99.8329
3633.2317,99.7331
3634.1960,99.6385
3635.1602,99.5791
3636.1245,99.5712
3637.0886,99.6109
3638.0530,99.6802
3639.0171,99.7555
3639.9814,99.8104
3640.9456,99.8149
3641.9099,99.7383
3642.8740,99.5613
3643.8384,99.2983
3644.8025,99.026
3645.7668,98.9087
3646.7310,99.1596
3647.6953,99.8149
3648.6594,100.451
3649.6238,100.575
3650.5879,100.287
3651.5522,99.9064
3652.5164,99.5637
3653.4807,99.2774
3654.4448,99.0771
3655.4092,99.0065
3656.3733,99.0729
3657.3376,99.2276
3658.3018,99.4024
3659.2661,99.5507
3660.2302,99.6564
3661.1946,99.7198
3662.1587,99.7366
3663.1230,99.6883
3664.0872,99.5549
3665.0515,99.3455
3666.0156,99.124
3666.9800,99.003
3667.9441,99.0741
3668.9084,99.2907
3669.8726,99.4591
3670.8369,99.4273
3671.8010,99.2238
3672.7654,99.0047
3673.7295,98.9519
3674.6938,99.1563
3675.6580,99.5126
3676.6223,99.8161
3677.5864,99.9733
3678.5508,100.005
3679.5149,99.9501
3680.4792,99.8344
3681.4434,99.6774
3682.4077,99.4859
3683.3718,99.2564
3684.3362,98.996
3685.3003,98.7565
3686.2646,98.6516
3687.2288,98.8131
3688.1931,99.2529
3689.1572,99.7568
3690.1216,100.06
3691.0857,100.112
3692.0500,100.014
3693.0142,99.855
3693.9785,99.674
3694.9426,99.4866
3695.9070,99.3041
3696.8711,99.1434
3697.8354,99.035
3698.7996,99.0218
3699.7639,99.1386
3700.7280,99.3736
3701.6924,99.6486
3702.6565,99.8561
3703.6208,99.9236
3704.5850,99.8366
3705.5493,99.6252
3706.5134,99.3563
3707.4778,99.1381
3708.4419,99.1039
3709.4063,99.3333
3710.3704,99.7338
3711.3347,100.073
3712.2988,100.215
3713.2632,100.202
3714.2273,100.11
3715.1917,99.9768
3716.1558,99.8217
3717.1201,99.6789
3718.0842,99.593
3719.0486,99.5973
3720.0127,99.695
3720.9771,99.8611
3721.9412,100.062
3722.9055,100.266
3723.8696,100.441
3724.8340,100.545
3725.7981,100.545
3726.7625,100.428
3727.7266,100.209
3728.6909,99.9175
3729.6550,99.6088
3730.6194,99.3736
3731.5835,99.3406
3732.5479,99.6362
3733.5120,100.277
3734.4763,101.011
3735.4404,101.487
3736.4048,101.576
3737.3689,101.389
3738.3333,101.04
3739.2974,100.568
3740.2617,100.01
3741.2258,99.4684
3742.1902,99.1159
3743.1543,99.0876
3744.1187,99.3276
3745.0828,99.6097
3746.0471,99.7633
3747.0112,99.787
3747.9756,99.7926
3748.9397,99.9104
3749.9041,100.147
3750.8682,100.32
3751.8325,100.282
3752.7966,100.095
3753.7610,99.8623
3754.7251,99.6281
3755.6895,99.4261
3756.6536,99.3091
3757.6179,99.3122
3758.5820,99.4063
3759.5464,99.5119
3760.5105,99.5642
3761.4749,99.545
3762.4390,99.4705
3763.4033,99.3726
3764.3674,99.285
3765.3318,99.2325
3766.2959,99.2264
3767.2603,99.2673
3768.2244,99.3477
3769.1887,99.4485
3770.1528,99.5382
3771.1172,99.5829
3772.0813,99.5597
3773.0457,99.4624
3774.0098,99.3056
3774.9741,99.1313
3775.9382,99.0075
3776.9026,99.0004
3777.8667,99.1256
3778.8311,99.3232
3779.7952,99.4998
3780.7595,99.5978
3781.7236,99.616
3782.6880,99.5848
3783.6521,99.5379
3784.6165,99.496
3785.5806,99.4653
3786.5449,99.442
3787.5090,99.4193
3788.4734,99.3901
3789.4375,99.3472
3790.4019,99.289
3791.3660,99.2271
3792.3303,99.1876
3793.2944,99.1992
3794.2588,99.2692
3795.2229,99.3672
3796.1873,99.4391
3797.1514,99.4496
3798.1157,99.4138
3799.0798,99.3826
3800.0442,99.3868
3801.0083,99.3937
3801.9727,99.3456
3802.9368,99.232
3803.9011,99.0982
3804.8652,99.0119
3805.8296,99.0311
3806.7937,99.1649
3807.7581,99.353
3808.7222,99.5039
3809.6865,99.5484
3810.6506,99.4646
3811.6150,99.2867
3812.5791,99.1033
3813.5435,99.0198
3814.5076,99.0809
3815.4719,99.2197
3816.4360,99.3212
3817.4004,99.3359
3818.3645,99.3069
3819.3289,99.3024
3820.2930,99.3422
3821.2573,99.3897
3822.2214,99.4139
3823.1858,99.4178
3824.1499,99.4128
3825.1143,99.4057
3826.0784,99.4038
3827.0427,99.4151
3828.0068,99.44
3828.9712,99.4689
3829.9353,99.4847
3830.8997,99.468
3831.8638,99.4013
3832.8281,99.2784
3833.7922,99.1163
3834.7566,98.9628
3835.7207,98.8843
3836.6851,98.9296
3837.6492,99.087
3838.6135,99.2879
3839.5776,99.4663
3840.5420,99.6024
3841.5061,99.7089
3842.4705,99.7991
3843.4346,99.8704
3844.3989,99.9031
3845.3630,99.8639
3846.3274,99.7146
3847.2915,99.426
3848.2559,99.0027
3849.2200,98.5202
3850.1843,98.1612
3851.1484,98.1934
3852.1128,98.7504
3853.0769,99.5019
3854.0413,99.9405
3855.0054,100.025
3855.9697,99.9533
3856.9338,99.806
3857.8982,99.5843
3858.8623,99.3124
3859.8267,99.066
3860.7908,98.9467
3861.7551,99.0182
3862.7192,99.2397
3863.6836,99.4728
3864.6477,99.5858
3865.6121,99.5423
3866.5762,99.3966
3867.5405,99.2449
3868.5046,99.1786
3869.4690,99.2412
3870.4331,99.4017
3871.3975,99.576
3872.3616,99.6855
3873.3259,99.6963
3874.2900,99.6139
3875.2544,99.4655
3876.2185,99.2943
3877.1829,99.1566
3878.1470,99.1085
3879.1113,99.1744
3880.0754,99.321
3881.0398,99.4729
3882.0039,99.5658
3882.9683,99.5817
3883.9324,99.5376
3884.8967,99.4543
3885.8608,99.343
3886.8252,99.2142
3887.7893,99.0915
3888.7537,99.0221
3889.7178,99.067
3890.6821,99.2541
3891.6462,99.5245
3892.6106,99.7547
3893.5747,99.847
3894.5391,99.7767
3895.5032,99.5779
3896.4675,99.321
3897.4316,99.0931
3898.3960,98.967
3899.3601,98.9714
3900.3245,99.0894
3901.2886,99.2824
3902.2529,99.5046
3903.2170,99.7007
3904.1814,99.8226
3905.1455,99.8562
3906.1099,99.8204
3907.0740,99.7444
3908.0383,99.6544
3909.0024,99.5716
3909.9668,99.5092
3910.9309,99.4682
3911.8953,99.4393
3912.8594,99.4145
3913.8237,99.399
3914.7878,99.4115
3915.7522,99.4674
3916.7163,99.557
3917.6807,99.6441
3918.6448,99.6915
3919.6091,99.6854
3920.5732,99.6383
3921.5376,99.5783
3922.5017,99.5354
3923.4661,99.5256
3924.4302,99.5404
3925.3945,99.5547
3926.3586,99.5474
3927.3230,99.5165
3928.2871,99.4825
3929.2515,99.4796
3930.2156,99.5334
3931.1799,99.6382
3932.1440,99.7565
3933.1084,99.8448
3934.0725,99.8783
3935.0369,99.8531
3936.0010,99.7792
3936.9653,99.6743
3937.9294,99.5631
3938.8938,99.4744
3939.8579,99.4348
3940.8223,99.4563
3941.7864,99.527
3942.7507,99.6138
3943.7148,99.6816
3944.6792,99.7126
3945.6433,99.712
3946.6077,99.7008
3947.5718,99.7004
3948.5361,99.7177
3949.5002,99.7416
3950.4646,99.7539
3951.4287,99.743
3952.3931,99.7103
3953.3572,99.6668
3954.3215,99.6262
3955.2856,99.5995
3956.2500,99.5921
3957.2141,99.6058
3958.1785,99.6411
3959.1426,99.6961
3960.1069,99.7632
3961.0710,99.8269
3962.0354,99.8682
3962.9995,99.8738
3963.9639,99.8438
3964.9280,99.7916
3965.8923,99.7369
3966.8564,99.6966
3967.8208,99.6787
3968.7849,99.6813
3969.7493,99.6979
3970.7134,99.7224
3971.6777,99.7529
3972.6418,99.7885
3973.6062,99.8255
3974.5703,99.8557
3975.5347,99.8701
3976.4988,99.8652
3977.4631,99.8459
3978.4272,99.8242
3979.3916,99.8115
3980.3557,99.8115
3981.3201,99.8182
3982.2842,99.819
3983.2485,99.8042
3984.2126,99.7742
3985.1770,99.7403
3986.1411,99.7189
3987.1055,99.7217
3988.0696,99.7496
3989.0339,99.7918
3989.9980,99.8318
3990.9624,99.8558
3991.9265,99.8598
3992.8909,99.8502
3993.8550,99.8384
3994.8193,99.8337
3995.7834,99.8386
3996.7478,99.8488
3997.7119,99.8575
3998.6763,99.8597
3999.6404,99.8551
4000.6047,100.691

##### Extended Information
[Comments]
Sample name
Comment
User
Division
Company,HANKYONG

[Detailed Information]
Creation date,4/24/2024 3:58 PM

Data array type,Linear data array
Horizontal axis,Wavenumber [cm-1]
Vertical axis,%T
Start,649.893 cm-1
End,4000.6 cm-1
Data interval,0.964233 cm-1
Data points,3476    

[Measurement Information]
Model Name,FT/IR-4700typeA
Serial Number,D056761788

Accessory,ATR PRO ONE
Accessory S/N,C174761809
Incident angle,45 deg

Measurement Date,4/24/2024 3:57 PM

Light Source,Standard
Detector,TGS
Accumulation,32
Resolution,4 cm-1
Zero Filling,On
Apodization,Cosine
Gain,Auto (4)
Aperture,Auto (7.1 mm)
Scanning Speed,Auto (2 mm/sec)
Filter,Auto (30000 Hz)

