TITLE,
DATA TYPE,INFRARED SPECTRUM
ORIGIN,JASCO
OWNER,
DATE,24/04/24
TIME,12:23:44
SPECTROMETER/DATA SYSTEM,
LOCALE,1033
RESOLUTION,
DELTAX,0.964233
XUNITS,1/CM
YUNITS,TRANSMITTANCE
FIRSTX,  649.8934
LASTX, 4000.6047
NPOINTS,    3476
FIRSTY,    96.92081
MAXY,   101.22703
MINY,    56.88566
XYDATA
649.8934,96.9208
650.8576,96.9238
651.8218,96.9484
652.7861,97.0036
653.7503,97.0871
654.7145,97.1936
655.6788,97.3076
656.6430,97.4064
657.6072,97.4774
658.5715,97.5331
659.5357,97.6089
660.4999,97.7328
661.4642,97.8909
662.4284,98.0215
663.3926,98.0439
664.3569,97.8885
665.3211,97.5132
666.2853,96.9344
667.2496,96.3141
668.2138,96.0036
669.1780,96.2434
670.1423,96.825
671.1065,97.3939
672.0707,97.7901
673.0350,98.0107
673.9992,98.1024
674.9634,98.1155
675.9277,98.0937
676.8919,98.0701
677.8561,98.0665
678.8204,98.0955
679.7846,98.1621
680.7488,98.2636
681.7131,98.3878
682.6773,98.5169
683.6415,98.6366
684.6058,98.7429
685.5700,98.8398
686.5342,98.9288
687.4985,99.0008
688.4627,99.0374
689.4269,99.0199
690.3912,98.9435
691.3554,98.8316
692.3196,98.7461
693.2839,98.7699
694.2481,98.9436
695.2123,99.2229
696.1766,99.5215
697.1408,99.7718
698.1050,99.9428
699.0693,100.033
700.0335,100.059
700.9977,100.049
701.9620,100.03
702.9262,100.025
703.8904,100.052
704.8547,100.122
705.8189,100.232
706.7831,100.369
707.7474,100.51
708.7116,100.632
709.6758,100.721
710.6401,100.773
711.6043,100.793
712.5685,100.788
713.5328,100.755
714.4970,100.687
715.4612,100.728
716.4255,100.559
717.3897,100.365
718.3539,100.183
719.3182,100.057
720.2824,100.02
721.2466,100.069
722.2109,100.172
723.1751,100.276
724.1393,100.339
725.1036,100.341
726.0678,100.29
727.0320,100.215
727.9963,100.148
728.9605,100.114
729.9247,100.117
730.8890,100.151
731.8532,100.2
732.8174,100.255
733.7817,100.313
734.7459,100.371
735.7101,100.423
736.6744,100.457
737.6386,100.456
738.6028,100.414
739.5671,100.338
740.5313,100.25
741.4955,100.172
742.4598,100.122
743.4240,100.097
744.3882,100.081
745.3525,100.071
746.3167,100.068
747.2809,100.045
748.2452,100.013
749.2094,99.9889
750.1736,99.9816
751.1379,99.9911
752.1021,100.008
753.0663,100.02
754.0306,100.016
754.9948,99.9894
755.9590,99.9443
756.9233,99.8893
757.8875,99.8354
758.8517,99.7912
759.8160,99.7597
760.7802,99.7391
761.7444,99.7251
762.7087,99.7132
763.6729,99.7011
764.6371,99.6888
765.6014,99.6782
766.5656,99.6721
767.5298,99.6738
768.4941,99.6857
769.4583,99.7088
770.4225,99.7422
771.3868,99.7829
772.3510,99.8267
773.3152,99.8688
774.2795,99.9038
775.2437,99.9263
776.2079,99.932
777.1722,99.92
778.1364,99.8941
779.1006,99.8625
780.0649,99.8341
781.0291,99.8149
781.9933,99.8051
782.9576,99.8002
783.9218,99.7933
784.8860,99.779
785.8503,99.7539
786.8145,99.7162
787.7787,99.6646
788.7430,99.5975
789.7072,99.5142
790.6714,99.4152
791.6357,99.3012
792.5999,99.171
793.5641,99.0205
794.5284,98.844
795.4926,98.6373
796.4568,98.4023
797.4211,98.1485
798.3853,97.8913
799.3495,97.6481
800.3138,97.4333
801.2780,97.2554
802.2422,97.1171
803.2065,97.0165
804.1707,96.9496
805.1349,96.9112
806.0992,96.896
807.0634,96.899
808.0276,96.9157
808.9919,96.9423
809.9561,96.9751
810.9203,97.0095
811.8846,97.0391
812.8488,97.0562
813.8130,97.0544
814.7773,97.0309
815.7415,96.9887
816.7057,96.9358
817.6700,96.8826
818.6342,96.8378
819.5984,96.805
820.5627,96.7819
821.5269,96.7619
822.4911,96.7375
823.4554,96.7042
824.4196,96.663
825.3839,96.6211
826.3481,96.5891
827.3123,96.5769
828.2766,96.59
829.2408,96.6268
830.2050,96.6795
831.1693,96.7381
832.1335,96.7941
833.0977,96.8448
834.0620,96.8932
835.0262,96.947
835.9904,97.0148
836.9547,97.1025
837.9189,97.2114
838.8831,97.337
839.8474,97.4697
840.8116,97.5975
841.7758,97.7089
842.7401,97.7964
843.7043,97.8589
844.6685,97.901
845.6328,97.9304
846.5970,97.9537
847.5612,97.9733
848.5255,97.986
849.4897,97.986
850.4539,97.9684
851.4182,97.9326
852.3824,97.8838
853.3466,97.8295
854.3109,97.7768
855.2751,97.7281
856.2393,97.681
857.2036,97.6299
858.1678,97.5692
859.1320,97.4952
860.0963,97.407
861.0605,97.3052
862.0247,97.1906
862.9890,97.0614
863.9532,96.9118
864.9174,96.73
865.8817,96.4975
866.8459,96.1919
867.8101,95.7915
868.7744,95.2826
869.7386,94.6643
870.7028,93.9507
871.6671,93.1683
872.6313,92.3514
873.5955,91.5387
874.5598,90.7732
875.5240,90.1041
876.4882,89.5861
877.4525,89.2732
878.4167,89.2071
879.3809,89.4055
880.3452,89.8561
881.3094,90.5205
882.2736,91.3457
883.2379,92.2759
884.2021,93.2585
885.1663,94.2445
886.1306,95.1865
887.0948,96.0402
888.0590,96.7717
889.0233,97.3659
889.9875,97.8295
890.9517,98.1857
891.9160,98.462
892.8802,98.6776
893.8444,98.8388
894.8087,98.9424
895.7729,98.9841
896.7371,98.9658
897.7014,98.8976
898.6656,98.7942
899.6298,98.6699
900.5941,98.5339
901.5583,98.39
902.5225,98.2388
903.4868,98.0805
904.4510,97.9177
905.4152,97.7554
906.3795,97.6001
907.3437,97.4579
908.3079,97.3331
909.2722,97.2303
910.2364,97.1557
911.2006,97.1198
912.1649,97.1355
913.1291,97.2146
914.0933,97.3621
915.0576,97.5732
916.0218,97.834
916.9860,98.1261
917.9503,98.4319
918.9145,98.7387
919.8787,99.0394
920.8430,99.3311
921.8072,99.6133
922.7714,99.8849
923.7357,100.143
924.6999,100.381
925.6641,100.59
926.6284,100.759
927.5926,100.878
928.5568,100.944
929.5211,100.961
930.4853,100.936
931.4495,100.881
932.4138,100.8
933.3780,100.696
934.3422,100.571
935.3065,100.454
936.2707,100.376
937.2349,100.284
938.1992,100.178
939.1634,100.058
940.1276,99.9245
941.0919,99.7772
942.0561,99.6203
943.0203,99.4587
943.9846,99.2955
944.9488,99.1291
945.9130,98.9539
946.8773,98.7631
947.8415,98.5531
948.8057,98.3248
949.7700,98.0829
950.7342,97.8325
951.6984,97.5761
952.6627,97.3136
953.6269,97.0434
954.5911,96.7648
955.5554,96.4788
956.5196,96.1872
957.4838,95.8917
958.4481,95.5931
959.4123,95.2929
960.3765,94.994
961.3408,94.7016
962.3050,94.422
963.2692,94.1606
964.2335,93.9201
965.1977,93.6998
966.1619,93.4956
967.1262,93.3018
968.0904,93.112
969.0546,92.9207
970.0189,92.7241
970.9831,92.5201
971.9473,92.3085
972.9116,92.0903
973.8758,91.8669
974.8400,91.6393
975.8043,91.4066
976.7685,91.1659
977.7327,90.9129
978.6970,90.6433
979.6612,90.3544
980.6254,90.0463
981.5897,89.7217
982.5539,89.3844
983.5181,89.0378
984.4824,88.6839
985.4466,88.3237
986.4108,87.9582
987.3751,87.5882
988.3393,87.2144
989.3035,86.8355
990.2678,86.4484
991.2320,86.0482
992.1962,85.6291
993.1605,85.1852
994.1247,84.7104
995.0889,84.1994
996.0532,83.6484
997.0174,83.0563
997.9816,82.4253
998.9459,81.7598
999.9101,81.065
1000.8743,80.3447
1001.8386,79.601
1002.8028,78.8349
1003.7670,78.0475
1004.7313,77.2406
1005.6955,76.4174
1006.6597,75.5823
1007.6240,74.741
1008.5882,73.9001
1009.5524,73.0662
1010.5167,72.2462
1011.4809,71.4468
1012.4451,70.6758
1013.4094,69.9407
1014.3736,69.2467
1015.3378,68.5945
1016.3021,67.9801
1017.2663,67.3976
1018.2305,66.8424
1019.1948,66.3104
1020.1590,65.7932
1021.1232,65.2709
1022.0875,64.7137
1023.0517,64.094
1024.0160,63.4066
1024.9802,62.6819
1025.9445,61.9812
1026.9087,61.372
1027.8729,60.8949
1028.8372,60.5431
1029.8014,60.2664
1030.7656,59.9979
1031.7299,59.6857
1032.6941,59.3136
1033.6583,58.8991
1034.6226,58.4781
1035.5868,58.0852
1036.5510,57.7426
1037.5153,57.4587
1038.4795,57.2334
1039.4437,57.0632
1040.4080,56.9463
1041.3722,56.8857
1042.3364,56.8905
1043.3007,56.9767
1044.2649,57.1642
1045.2291,57.4726
1046.1934,57.9172
1047.1576,58.5077
1048.1218,59.2488
1049.0861,60.1393
1050.0503,61.1677
1051.0145,62.3062
1051.9788,63.508
1052.9430,64.714
1053.9072,65.8685
1054.8715,66.9377
1055.8357,67.918
1056.7999,68.8273
1057.7642,69.6788
1058.7284,70.453
1059.6926,71.0871
1060.6569,71.4933
1061.6211,71.6028
1062.5853,71.4114
1063.5496,70.9997
1064.5138,70.5092
1065.4780,70.0836
1066.4423,69.8055
1067.4065,69.6626
1068.3707,69.5643
1069.3350,69.3968
1070.2992,69.0836
1071.2634,68.6183
1072.2277,68.0563
1073.1919,67.4767
1074.1561,66.9441
1075.1204,66.4895
1076.0846,66.1163
1077.0488,65.8187
1078.0131,65.5953
1078.9773,65.4515
1079.9415,65.3917
1080.9058,65.4127
1081.8700,65.5029
1082.8342,65.6465
1083.7985,65.8306
1084.7627,66.0489
1085.7269,66.3023
1086.6912,66.5973
1087.6554,66.9427
1088.6196,67.3441
1089.5839,67.7981
1090.5481,68.2885
1091.5123,68.7882
1092.4766,69.2651
1093.4408,69.6912
1094.4050,70.0479
1095.3693,70.3259
1096.3335,70.5216
1097.2977,70.6329
1098.2620,70.6581
1099.2262,70.5974
1100.1904,70.4556
1101.1547,70.242
1102.1189,69.9682
1103.0831,69.6464
1104.0474,69.2886
1105.0116,68.9082
1105.9758,68.5214
1106.9401,68.1484
1107.9043,67.812
1108.8685,67.5367
1109.8328,67.3468
1110.7970,67.2652
1111.7612,67.3112
1112.7255,67.4982
1113.6897,67.832
1114.6539,68.3101
1115.6182,68.9245
1116.5824,69.6638
1117.5466,70.5168
1118.5109,71.473
1119.4751,72.5223
1120.4393,73.6549
1121.4036,74.8614
1122.3678,76.1337
1123.3320,77.4659
1124.2963,78.8539
1125.2605,80.2937
1126.2247,81.7795
1127.1890,83.3015
1128.1532,84.8454
1129.1174,86.3917
1130.0817,87.9161
1131.0459,89.391
1132.0101,90.7875
1132.9744,92.0784
1133.9386,93.2402
1134.9028,94.2541
1135.8671,95.1073
1136.8313,95.7927
1137.7955,96.3103
1138.7598,96.6675
1139.7240,96.879
1140.6882,96.9651
1141.6525,96.9479
1142.6167,96.8485
1143.5809,96.6861
1144.5452,96.4786
1145.5094,96.2446
1146.4736,96.0034
1147.4379,95.7735
1148.4021,95.5692
1149.3663,95.3999
1150.3306,95.2706
1151.2948,95.1848
1152.2590,95.1467
1153.2233,95.1607
1154.1875,95.2302
1155.1517,95.3558
1156.1160,95.5351
1157.0802,95.7638
1158.0444,96.0355
1159.0087,96.3417
1159.9729,96.6687
1160.9371,96.9981
1161.9014,97.3091
1162.8656,97.5832
1163.8298,97.8089
1164.7941,97.9836
1165.7583,98.1107
1166.7225,98.1951
1167.6868,98.2396
1168.6510,98.2441
1169.6152,98.2062
1170.5795,98.1239
1171.5437,97.9961
1172.5079,97.8216
1173.4722,97.5983
1174.4364,97.323
1175.4006,96.9921
1176.3649,96.6033
1177.3291,96.1578
1178.2933,95.6607
1179.2576,95.1217
1180.2218,94.4689
1181.1860,93.8046
1182.1503,93.1435
1183.1145,92.4979
1184.0787,91.8756
1185.0430,91.2802
1186.0072,90.7117
1186.9714,90.1679
1187.9357,89.6451
1188.8999,89.1392
1189.8641,88.645
1190.8284,88.1566
1191.7926,87.6672
1192.7568,87.1704
1193.7211,86.6617
1194.6853,86.1394
1195.6495,85.6047
1196.6138,85.0601
1197.5780,84.5073
1198.5422,83.9462
1199.5065,83.4322
1200.4707,82.8462
1201.4349,82.256
1202.3992,81.6712
1203.3634,81.1042
1204.3276,80.5666
1205.2919,80.0663
1206.2561,79.6072
1207.2203,79.1903
1208.1846,78.8165
1209.1488,78.4893
1210.1130,78.2142
1211.0773,77.9974
1212.0415,77.8437
1213.0057,77.7547
1213.9700,77.7301
1214.9342,77.7686
1215.8984,77.8695
1216.8627,78.0325
1217.8269,78.2556
1218.7911,78.5335
1219.7554,78.8567
1220.7196,79.2142
1221.6838,79.5954
1222.6481,79.9917
1223.6123,80.3962
1224.5765,80.803
1225.5408,81.2065
1226.5050,81.6016
1227.4692,81.9843
1228.4335,82.351
1229.3977,82.6981
1230.3619,83.0233
1231.3262,83.3273
1232.2904,83.6152
1233.2546,83.8943
1234.2189,84.1675
1235.1831,84.4261
1236.1473,84.6496
1237.1116,84.8151
1238.0758,84.9137
1239.0400,84.9636
1240.0043,85.0079
1240.9685,85.0959
1241.9327,85.2578
1242.8970,85.4873
1243.8612,85.7444
1244.8254,85.9778
1245.7897,86.1516
1246.7539,86.261
1247.7181,86.3282
1248.6824,86.3847
1249.6466,86.4527
1250.6108,86.5353
1251.5751,86.6198
1252.5393,86.6869
1253.5035,86.72
1254.4678,86.7099
1255.4320,86.6559
1256.3962,86.565
1257.3605,86.45
1258.3247,86.3271
1259.2889,86.2122
1260.2532,86.1158
1261.2174,86.041
1262.1816,85.9849
1263.1459,85.9431
1264.1101,85.9137
1265.0743,85.8997
1266.0386,85.9073
1267.0028,85.9445
1267.9670,86.0201
1268.9313,86.1425
1269.8955,86.3186
1270.8597,86.5505
1271.8240,86.8337
1272.7882,87.1573
1273.7524,87.5074
1274.7167,87.8721
1275.6809,88.2445
1276.6451,88.6224
1277.6094,89.0056
1278.5736,89.3933
1279.5378,89.7823
1280.5021,90.1672
1281.4663,90.5416
1282.4305,90.8992
1283.3948,91.2355
1284.3590,91.5476
1285.3232,91.8352
1286.2875,92.0994
1287.2517,92.3421
1288.2159,92.5638
1289.1802,92.7623
1290.1444,92.9327
1291.1086,93.0699
1292.0729,93.1708
1293.0371,93.2372
1294.0013,93.2751
1294.9656,93.2928
1295.9298,93.2982
1296.8940,93.2956
1297.8583,93.2848
1298.8225,93.2624
1299.7867,93.2244
1300.7510,93.1686
1301.7152,93.0949
1302.6794,93.0064
1303.6437,92.9073
1304.6079,92.8014
1305.5721,92.6905
1306.5364,92.5744
1307.5006,92.451
1308.4648,92.3179
1309.4291,92.1749
1310.3933,92.0248
1311.3575,91.8731
1312.3218,91.726
1313.2860,91.5869
1314.2502,91.4554
1315.2145,91.3294
1316.1787,91.2084
1317.1429,91.0969
1318.1072,91.0032
1319.0714,90.9349
1320.0356,90.8942
1320.9999,90.877
1321.9641,90.8779
1322.9283,90.8963
1323.8926,90.9381
1324.8568,91.0133
1325.8210,91.1319
1326.7853,91.3
1327.7495,91.5196
1328.7137,91.7901
1329.6780,92.1105
1330.6422,92.4763
1331.6064,92.8746
1332.5707,93.2833
1333.5349,93.6753
1334.4991,94.03
1335.4634,94.346
1336.4276,94.6488
1337.3918,94.99
1338.3561,95.4257
1339.3203,95.9754
1340.2845,96.5941
1341.2488,97.1996
1342.2130,97.7284
1343.1772,98.1622
1344.1415,98.5149
1345.1057,98.8099
1346.0699,99.0664
1347.0342,99.2958
1347.9984,99.5015
1348.9626,99.6805
1349.9269,99.8258
1350.8911,99.9322
1351.8553,100
1352.8196,100.038
1353.7838,100.057
1354.7480,100.065
1355.7123,100.057
1356.6765,100.02
1357.6407,99.9387
1358.6050,99.8039
1359.5692,99.6189
1360.5334,99.4018
1361.4977,99.1852
1362.4619,98.9965
1363.4261,98.8307
1364.3904,98.6548
1365.3546,98.4414
1366.3188,98.1896
1367.2831,97.9191
1368.2473,97.6558
1369.2115,97.4205
1370.1758,97.2233
1371.1400,97.0682
1372.1042,96.964
1373.0685,96.9314
1374.0327,96.992
1374.9969,97.1416
1375.9612,97.3422
1376.9254,97.552
1377.8896,97.7569
1378.8539,97.9685
1379.8181,98.2004
1380.7823,98.4482
1381.7466,98.6919
1382.7108,98.9158
1383.6750,99.128
1384.6393,99.3619
1385.6035,99.6559
1386.5677,100.011
1387.5320,100.35
1388.4962,100.548
1389.4604,100.524
1390.4247,100.29
1391.3889,99.9282
1392.3531,99.5463
1393.3174,99.2603
1394.2816,99.1734
1395.2458,99.2397
1396.2101,99.4505
1397.1743,99.6684
1398.1385,99.7555
1399.1028,99.6551
1400.0670,99.3862
1401.0313,99.0026
1401.9955,98.5575
1402.9597,98.0878
1403.9240,97.6152
1404.8882,97.1505
1405.8524,96.6936
1406.8167,96.234
1407.7809,95.7567
1408.7451,95.2508
1409.7094,94.7096
1410.6736,94.1308
1411.6378,93.519
1412.6021,92.8874
1413.5663,92.2531
1414.5305,91.6259
1415.4948,91.0009
1416.4590,90.3638
1417.4232,89.7205
1418.3875,89.1151
1419.3517,88.5882
1420.3159,88.131
1421.2802,87.7254
1422.2444,87.3904
1423.2086,87.1636
1424.1729,87.0636
1425.1371,87.078
1426.1013,87.1826
1427.0656,87.3696
1428.0298,87.6547
1428.9940,88.052
1429.9583,88.5351
1430.9225,89.0332
1431.8867,89.48
1432.8510,89.8575
1433.8152,90.1859
1434.7794,90.4805
1435.7437,90.7136
1436.7079,90.7988
1437.6721,90.6319
1438.6364,90.1774
1439.6006,89.4929
1440.5648,88.6661
1441.5291,87.7609
1442.4933,86.8117
1443.4575,85.8377
1444.4218,84.8536
1445.3860,83.8714
1446.3502,82.9068
1447.3145,81.9895
1448.2787,81.1628
1449.2429,80.4614
1450.2072,79.893
1451.1714,79.4465
1452.1356,79.109
1453.0999,78.8648
1454.0641,78.6852
1455.0283,78.5484
1455.9926,78.5187
1456.9568,78.751
1457.9210,79.1811
1458.8853,79.4826
1459.8495,79.5378
1460.8137,79.4842
1461.7780,79.5032
1462.7422,79.7468
1463.7064,80.3351
1464.6707,81.2906
1465.6349,82.4501
1466.5991,83.5603
1467.5634,84.4978
1468.5276,85.3139
1469.4918,86.1295
1470.4561,87.059
1471.4203,88.1939
1472.3845,89.5638
1473.3488,91.0233
1474.3130,92.2754
1475.2772,93.1361
1476.2415,93.6385
1477.2057,93.8955
1478.1699,93.9929
1479.1342,93.9749
1480.0984,93.8625
1481.0626,93.6661
1482.0269,93.3898
1482.9911,93.0357
1483.9553,92.6069
1484.9196,92.1036
1485.8838,91.5147
1486.8480,90.8243
1487.8123,90.0584
1488.7765,89.3296
1489.7407,88.7533
1490.7050,88.3044
1491.6692,87.8758
1492.6334,87.4085
1493.5977,86.8914
1494.5619,86.313
1495.5261,85.6597
1496.4904,84.9623
1497.4546,84.3128
1498.4188,83.7758
1499.3831,83.321
1500.3473,82.9044
1501.3115,82.5366
1502.2758,82.2481
1503.2400,82.0245
1504.2042,81.7526
1505.1685,81.2153
1506.1327,80.2753
1507.0969,79.2535
1508.0612,78.6298
1509.0254,78.3067
1509.9896,78.0154
1510.9539,77.6975
1511.9181,77.4021
1512.8823,77.2017
1513.8466,77.1851
1514.8108,77.4455
1515.7750,78.0311
1516.7393,78.9065
1517.7035,80.0031
1518.6677,81.3291
1519.6320,82.9968
1520.5962,85.0762
1521.5604,87.3934
1522.5247,89.582
1523.4889,91.4031
1524.4531,92.9061
1525.4174,94.2675
1526.3816,95.5674
1527.3458,96.7337
1528.3101,97.6571
1529.2743,98.3111
1530.2385,98.7647
1531.2028,99.1278
1532.1670,99.4922
1533.1312,99.8772
1534.0955,100.216
1535.0597,100.44
1536.0239,100.553
1536.9882,100.585
1537.9524,100.495
1538.9166,100.167
1539.8809,99.6286
1540.8451,99.2745
1541.8093,99.3664
1542.7736,99.627
1543.7378,99.7971
1544.7020,99.8403
1545.6663,99.7815
1546.6305,99.6403
1547.5947,99.4389
1548.5590,99.2772
1549.5232,99.111
1550.4874,98.945
1551.4517,98.767
1552.4159,98.57
1553.3801,98.3738
1554.3444,98.2168
1555.3086,98.1164
1556.2728,98.0405
1557.2371,97.9654
1558.2013,98.0123
1559.1655,98.2
1560.1298,98.1365
1561.0940,97.6531
1562.0582,96.9676
1563.0225,96.307
1563.9867,95.7728
1564.9509,95.3698
1565.9152,95.0485
1566.8794,94.7362
1567.8436,94.3707
1568.8079,93.9335
1569.7721,93.4522
1570.7363,92.9689
1571.7006,92.5129
1572.6648,92.0832
1573.6290,91.6276
1574.5933,91.0556
1575.5575,90.3235
1576.5217,89.52
1577.4860,88.7735
1578.4502,88.1055
1579.4144,87.4711
1580.3787,86.8378
1581.3429,86.1903
1582.3071,85.5245
1583.2714,84.8514
1584.2356,84.1914
1585.1998,83.5577
1586.1641,82.9506
1587.1283,82.368
1588.0925,81.8146
1589.0568,81.3016
1590.0210,80.8383
1590.9852,80.4262
1591.9495,80.0636
1592.9137,79.7526
1593.8779,79.4997
1594.8422,79.307
1595.8064,79.1643
1596.7706,79.0506
1597.7349,78.9464
1598.6991,78.8436
1599.6633,78.7479
1600.6276,78.6746
1601.5918,78.6403
1602.5560,78.6533
1603.5203,78.7086
1604.4845,78.7924
1605.4487,78.8954
1606.4130,79.0236
1607.3772,79.1982
1608.3414,79.4385
1609.3057,79.7369
1610.2699,80.054
1611.2341,80.3521
1612.1984,80.6294
1613.1626,80.924
1614.1268,81.3012
1615.0911,81.839
1616.0553,82.5649
1617.0195,83.3488
1617.9838,83.9707
1618.9480,84.3524
1619.9122,84.597
1620.8765,84.8493
1621.8407,85.1979
1622.8049,85.646
1623.7692,86.1219
1624.7334,86.5349
1625.6976,86.8481
1626.6619,87.0896
1627.6261,87.2973
1628.5903,87.4775
1629.5546,87.6172
1630.5188,87.7201
1631.4830,87.8125
1632.4473,87.9087
1633.4115,87.9843
1634.3757,88.0087
1635.3400,88.0255
1636.3042,88.1063
1637.2684,88.1908
1638.2327,88.1777
1639.1969,88.0736
1640.1611,87.945
1641.1254,87.8434
1642.0896,87.7841
1643.0538,87.7412
1644.0181,87.65
1644.9823,87.4465
1645.9465,87.1603
1646.9108,86.9293
1647.8750,86.8461
1648.8392,86.9059
1649.8035,87.0871
1650.7677,87.3455
1651.7319,87.5872
1652.6962,87.7534
1653.6604,87.8544
1654.6246,87.774
1655.5889,87.4436
1656.5531,87.0211
1657.5173,86.6807
1658.4816,86.49
1659.4458,86.4275
1660.4100,86.4368
1661.3743,86.4751
1662.3385,86.5245
1663.3027,86.5641
1664.2670,86.5722
1665.2312,86.55
1666.1954,86.5113
1667.1597,86.4584
1668.1239,86.3919
1669.0881,86.3411
1670.0524,86.3493
1671.0166,86.4189
1671.9808,86.5224
1672.9451,86.6491
1673.9093,86.7938
1674.8735,86.9219
1675.8378,86.9689
1676.8020,86.8887
1677.7662,86.707
1678.7305,86.5137
1679.6947,86.4005
1680.6589,86.4084
1681.6232,86.5177
1682.5874,86.6897
1683.5516,86.9068
1684.5159,87.1016
1685.4801,87.136
1686.4443,86.9838
1687.4086,86.7578
1688.3728,86.5755
1689.3370,86.492
1690.3013,86.5047
1691.2655,86.5787
1692.2297,86.6643
1693.1940,86.7053
1694.1582,86.6504
1695.1224,86.484
1696.0867,86.2654
1697.0509,86.1295
1698.0151,86.1959
1698.9794,86.4341
1699.9436,86.6497
1700.9078,86.6537
1701.8721,86.42
1702.8363,86.0665
1703.8005,85.7445
1704.7648,85.5584
1705.7290,85.5344
1706.6932,85.6217
1707.6575,85.7321
1708.6217,85.8035
1709.5859,85.8305
1710.5502,85.8429
1711.5144,85.8672
1712.4786,85.908
1713.4429,85.9552
1714.4071,86.0184
1715.3713,86.1844
1716.3356,86.6085
1717.2998,87.3022
1718.2640,87.9876
1719.2283,88.4133
1720.1925,88.5995
1721.1567,88.7056
1722.1210,88.8618
1723.0852,89.1149
1724.0494,89.4396
1725.0137,89.7737
1725.9779,90.0606
1726.9421,90.279
1727.9064,90.4462
1728.8706,90.602
1729.8348,90.7884
1730.7991,91.0414
1731.7633,91.3978
1732.7275,91.8867
1733.6918,92.4534
1734.6560,92.9211
1735.6202,93.1615
1736.5845,93.2301
1737.5487,93.2722
1738.5129,93.3924
1739.4772,93.6108
1740.4414,93.8793
1741.4056,94.1262
1742.3699,94.3061
1743.3341,94.4241
1744.2983,94.5162
1745.2626,94.6171
1746.2268,94.7482
1747.1910,94.9339
1748.1553,95.2203
1749.1195,95.6488
1750.0837,96.1781
1751.0480,96.6693
1752.0122,97.0048
1752.9764,97.1782
1753.9407,97.2599
1754.9049,97.3238
1755.8691,97.4095
1756.8334,97.5211
1757.7976,97.6453
1758.7618,97.7724
1759.7261,97.9063
1760.6903,98.0574
1761.6545,98.2244
1762.6188,98.3864
1763.5830,98.5187
1764.5472,98.6152
1765.5115,98.69
1766.4757,98.7584
1767.4399,98.8212
1768.4042,98.8659
1769.3684,98.8845
1770.3326,98.8977
1771.2969,98.9589
1772.2611,99.1026
1773.2253,99.2827
1774.1896,99.4122
1775.1538,99.4582
1776.1180,99.4551
1777.0823,99.4535
1778.0465,99.4808
1779.0107,99.5388
1779.9750,99.6186
1780.9392,99.7132
1781.9034,99.819
1782.8677,99.9305
1783.8319,100.033
1784.7961,100.106
1785.7604,100.134
1786.7246,100.125
1787.6888,100.102
1788.6531,100.085
1789.6173,100.075
1790.5815,100.062
1791.5458,100.051
1792.5100,100.055
1793.4742,100.059
1794.4385,100.034
1795.4027,99.9896
1796.3669,99.9585
1797.3312,99.964
1798.2954,100.005
1799.2596,100.068
1800.2239,100.14
1801.1881,100.213
1802.1523,100.274
1803.1166,100.313
1804.0808,100.326
1805.0450,100.317
1806.0093,100.29
1806.9735,100.25
1807.9377,100.203
1808.9020,100.163
1809.8662,100.152
1810.8304,100.178
1811.7947,100.233
1812.7589,100.296
1813.7231,100.348
1814.6874,100.385
1815.6516,100.406
1816.6158,100.411
1817.5801,100.4
1818.5443,100.375
1819.5085,100.34
1820.4728,100.304
1821.4370,100.273
1822.4012,100.248
1823.3655,100.222
1824.3297,100.186
1825.2939,100.131
1826.2582,100.056
1827.2224,99.9756
1828.1866,99.915
1829.1509,99.9021
1830.1151,99.9391
1831.0793,99.9897
1832.0436,100.008
1833.0078,99.9801
1833.9720,99.9236
1834.9363,99.8619
1835.9005,99.8074
1836.8647,99.7614
1837.8290,99.7218
1838.7932,99.6906
1839.7574,99.6746
1840.7217,99.6927
1841.6859,99.7388
1842.6501,99.7646
1843.6144,99.7642
1844.5786,99.7512
1845.5428,99.7344
1846.5071,99.7149
1847.4713,99.7026
1848.4355,99.713
1849.3998,99.7503
1850.3640,99.802
1851.3282,99.8486
1852.2925,99.877
1853.2567,99.8856
1854.2209,99.8805
1855.1852,99.8685
1856.1494,99.8538
1857.1136,99.8388
1858.0779,99.8273
1859.0421,99.8237
1860.0063,99.8276
1860.9706,99.8312
1861.9348,99.8212
1862.8990,99.7875
1863.8633,99.7279
1864.8275,99.6469
1865.7917,99.5559
1866.7560,99.4807
1867.7202,99.4646
1868.6844,99.5374
1869.6487,99.67
1870.6129,99.7951
1871.5771,99.8711
1872.5414,99.9024
1873.5056,99.9119
1874.4698,99.9158
1875.4341,99.9183
1876.3983,99.9182
1877.3625,99.9153
1878.3268,99.9109
1879.2910,99.9068
1880.2552,99.9027
1881.2195,99.8961
1882.1837,99.8841
1883.1479,99.8657
1884.1122,99.8434
1885.0764,99.8215
1886.0406,99.8046
1887.0049,99.7951
1887.9691,99.794
1888.9333,99.8
1889.8976,99.8071
1890.8618,99.8055
1891.8260,99.7899
1892.7903,99.765
1893.7545,99.7432
1894.7188,99.7369
1895.6830,99.7514
1896.6472,99.7814
1897.6115,99.8134
1898.5757,99.8343
1899.5399,99.8386
1900.5042,99.8288
1901.4684,99.8112
1902.4326,99.7905
1903.3969,99.7659
1904.3611,99.7328
1905.3253,99.6878
1906.2896,99.6336
1907.2538,99.5817
1908.2180,99.5481
1909.1823,99.5445
1910.1465,99.5683
1911.1107,99.6033
1912.0750,99.6321
1913.0392,99.648
1914.0034,99.6543
1914.9677,99.6559
1915.9319,99.6537
1916.8961,99.6433
1917.8604,99.6174
1918.8246,99.5704
1919.7888,99.5062
1920.7531,99.4422
1921.7173,99.4022
1922.6815,99.403
1923.6458,99.4438
1924.6100,99.5055
1925.5742,99.5637
1926.5385,99.6028
1927.5027,99.6211
1928.4669,99.6247
1929.4312,99.6218
1930.3954,99.6185
1931.3596,99.6184
1932.3239,99.6235
1933.2881,99.6349
1934.2523,99.6516
1935.2166,99.6693
1936.1808,99.6816
1937.1450,99.6825
1938.1093,99.6695
1939.0735,99.6437
1940.0377,99.6094
1941.0020,99.5751
1941.9662,99.5525
1942.9304,99.5503
1943.8947,99.5673
1944.8589,99.5958
1945.8231,99.629
1946.7874,99.664
1947.7516,99.6988
1948.7158,99.7296
1949.6801,99.7516
1950.6443,99.7623
1951.6085,99.7634
1952.5728,99.7606
1953.5370,99.7603
1954.5012,99.7665
1955.4655,99.7791
1956.4297,99.7949
1957.3939,99.8105
1958.3582,99.8239
1959.3224,99.8344
1960.2866,99.8407
1961.2509,99.8403
1962.2151,99.8305
1963.1793,99.8104
1964.1436,99.7844
1965.1078,99.7619
1966.0720,99.7552
1967.0363,99.7727
1968.0005,99.8123
1968.9647,99.862
1969.9290,99.9076
1970.8932,99.9402
1971.8574,99.9584
1972.8217,99.9661
1973.7859,99.9681
1974.7501,99.9688
1975.7144,99.9699
1976.6786,99.9715
1977.6428,99.9733
1978.6071,99.9756
1979.5713,99.979
1980.5355,99.9839
1981.4998,99.9892
1982.4640,99.9927
1983.4282,99.9919
1984.3925,99.9852
1985.3567,99.9721
1986.3209,99.9535
1987.2852,99.9311
1988.2494,99.9077
1989.2136,99.887
1990.1779,99.8749
1991.1421,99.8771
1992.1063,99.8961
1993.0706,99.9271
1994.0348,99.9607
1994.9990,99.9879
1995.9633,100.004
1996.9275,100.011
1997.8917,100.012
1998.8560,100.012
1999.8202,100.016
2000.7844,100.022
2001.7487,100.029
2002.7129,100.034
2003.6771,100.033
2004.6414,100.028
2005.6056,100.019
2006.5698,100.01
2007.5341,100.004
2008.4983,100.003
2009.4625,100.006
2010.4268,100.01
2011.3910,100.01
2012.3552,100.002
2013.3195,99.9829
2014.2837,99.9566
2015.2479,99.9297
2016.2122,99.9112
2017.1764,99.9075
2018.1406,99.9183
2019.1049,99.9371
2020.0691,99.9554
2021.0333,99.9675
2021.9976,99.9725
2022.9618,99.973
2023.9260,99.9724
2024.8903,99.9729
2025.8545,99.9747
2026.8187,99.9768
2027.7830,99.9782
2028.7472,99.9786
2029.7114,99.9782
2030.6757,99.9772
2031.6399,99.9757
2032.6041,99.9738
2033.5684,99.972
2034.5326,99.9703
2035.4968,99.9674
2036.4611,99.9613
2037.4253,99.9502
2038.3895,99.9338
2039.3538,99.9149
2040.3180,99.8983
2041.2822,99.8893
2042.2465,99.8898
2043.2107,99.8982
2044.1749,99.9098
2045.1392,99.9198
2046.1034,99.9252
2047.0676,99.9256
2048.0320,99.9222
2048.9961,99.9172
2049.9604,99.9121
2050.9246,99.9079
2051.8889,99.905
2052.8530,99.9027
2053.8174,99.9002
2054.7815,99.8968
2055.7458,99.8919
2056.7100,99.8856
2057.6743,99.878
2058.6384,99.869
2059.6028,99.8581
2060.5669,99.8447
2061.5313,99.8297
2062.4954,99.816
2063.4597,99.8079
2064.4238,99.8092
2065.3882,99.8206
2066.3523,99.8389
2067.3167,99.8583
2068.2808,99.873
2069.2451,99.8804
2070.2092,99.8811
2071.1736,99.8781
2072.1377,99.8751
2073.1021,99.8745
2074.0662,99.8765
2075.0305,99.8797
2075.9946,99.8826
2076.9590,99.884
2077.9231,99.8838
2078.8875,99.8829
2079.8516,99.8821
2080.8159,99.882
2081.7800,99.8822
2082.7444,99.8823
2083.7085,99.8816
2084.6729,99.88
2085.6370,99.878
2086.6013,99.876
2087.5654,99.8743
2088.5298,99.873
2089.4939,99.8716
2090.4583,99.8701
2091.4224,99.8688
2092.3867,99.8683
2093.3508,99.8692
2094.3152,99.8717
2095.2793,99.8753
2096.2437,99.8789
2097.2078,99.8815
2098.1721,99.8821
2099.1362,99.88
2100.1006,99.8742
2101.0647,99.8681
2102.0291,99.8615
2102.9932,99.856
2103.9575,99.8527
2104.9216,99.8521
2105.8860,99.8533
2106.8501,99.8548
2107.8145,99.8547
2108.7786,99.8515
2109.7429,99.8446
2110.7070,99.8352
2111.6714,99.8253
2112.6355,99.8181
2113.5999,99.8158
2114.5640,99.8193
2115.5283,99.8273
2116.4924,99.8368
2117.4568,99.8445
2118.4209,99.8483
2119.3853,99.8477
2120.3494,99.844
2121.3137,99.8389
2122.2778,99.8336
2123.2422,99.8291
2124.2063,99.8256
2125.1707,99.8237
2126.1348,99.8244
2127.0991,99.8287
2128.0632,99.8367
2129.0276,99.8469
2129.9917,99.8562
2130.9561,99.8615
2131.9202,99.8606
2132.8845,99.854
2133.8486,99.8448
2134.8130,99.8373
2135.7771,99.8354
2136.7415,99.8409
2137.7056,99.8529
2138.6699,99.8685
2139.6340,99.884
2140.5984,99.8966
2141.5625,99.9053
2142.5269,99.9108
2143.4910,99.9147
2144.4553,99.9187
2145.4194,99.9237
2146.3838,99.9297
2147.3479,99.9361
2148.3123,99.9421
2149.2764,99.9467
2150.2407,99.9497
2151.2048,99.9509
2152.1692,99.951
2153.1333,99.951
2154.0977,99.9521
2155.0618,99.9553
2156.0261,99.9609
2156.9902,99.9684
2157.9546,99.9771
2158.9187,99.9861
2159.8831,99.995
2160.8472,100.003
2161.8115,100.011
2162.7756,100.016
2163.7400,100.019
2164.7041,100.021
2165.6685,100.021
2166.6326,100.022
2167.5969,100.026
2168.5610,100.032
2169.5254,100.04
2170.4895,100.047
2171.4539,100.053
2172.4180,100.057
2173.3823,100.062
2174.3464,100.067
2175.3108,100.074
2176.2749,100.08
2177.2393,100.085
2178.2034,100.087
2179.1677,100.088
2180.1318,100.086
2181.0962,100.085
2182.0603,100.085
2183.0247,100.088
2183.9888,100.093
2184.9531,100.1
2185.9172,100.108
2186.8816,100.117
2187.8457,100.124
2188.8101,100.131
2189.7742,100.135
2190.7385,100.139
2191.7026,100.143
2192.6670,100.147
2193.6311,100.153
2194.5955,100.159
2195.5596,100.163
2196.5239,100.165
2197.4880,100.163
2198.4524,100.161
2199.4165,100.158
2200.3809,100.158
2201.3450,100.16
2202.3093,100.164
2203.2734,100.167
2204.2378,100.17
2205.2019,100.172
2206.1663,100.174
2207.1304,100.178
2208.0947,100.183
2209.0588,100.189
2210.0232,100.192
2210.9873,100.191
2211.9517,100.186
2212.9158,100.178
2213.8801,100.17
2214.8442,100.164
2215.8086,100.162
2216.7727,100.163
2217.7371,100.164
2218.7012,100.165
2219.6655,100.164
2220.6296,100.161
2221.5940,100.158
2222.5581,100.154
2223.5225,100.152
2224.4866,100.15
2225.4509,100.148
2226.4150,100.146
2227.3794,100.143
2228.3435,100.138
2229.3079,100.13
2230.2720,100.12
2231.2363,100.108
2232.2004,100.095
2233.1648,100.082
2234.1289,100.072
2235.0933,100.066
2236.0574,100.062
2237.0217,100.06
2237.9858,100.058
2238.9502,100.052
2239.9143,100.044
2240.8787,100.033
2241.8428,100.021
2242.8071,100.01
2243.7712,100.001
2244.7356,99.9932
2245.6997,99.9858
2246.6641,99.9769
2247.6282,99.9655
2248.5925,99.9518
2249.5566,99.9365
2250.5210,99.921
2251.4851,99.906
2252.4495,99.8923
2253.4136,99.8803
2254.3779,99.8699
2255.3420,99.8611
2256.3064,99.8535
2257.2705,99.8465
2258.2349,99.8395
2259.1990,99.8321
2260.1633,99.8241
2261.1274,99.816
2262.0918,99.8083
2263.0559,99.802
2264.0203,99.7977
2264.9844,99.7959
2265.9487,99.7962
2266.9128,99.797
2267.8772,99.7964
2268.8413,99.7927
2269.8057,99.7855
2270.7698,99.7766
2271.7341,99.7686
2272.6982,99.7646
2273.6626,99.7663
2274.6267,99.7734
2275.5911,99.7842
2276.5552,99.7964
2277.5195,99.8084
2278.4836,99.8195
2279.4480,99.8299
2280.4121,99.8394
2281.3765,99.8467
2282.3406,99.8493
2283.3049,99.8438
2284.2690,99.8275
2285.2334,99.7998
2286.1975,99.7627
2287.1619,99.7202
2288.1260,99.6769
2289.0903,99.6353
2290.0544,99.596
2291.0188,99.5586
2291.9829,99.5232
2292.9473,99.492
2293.9114,99.4679
2294.8757,99.4526
2295.8398,99.4458
2296.8042,99.4454
2297.7683,99.4504
2298.7327,99.4624
2299.6968,99.4858
2300.6611,99.5242
2301.6252,99.5764
2302.5896,99.6345
2303.5537,99.6855
2304.5181,99.7173
2305.4822,99.7247
2306.4465,99.7145
2307.4106,99.7041
2308.3750,99.7153
2309.3391,99.764
2310.3035,99.8523
2311.2676,99.9666
2312.2319,100.085
2313.1960,100.186
2314.1604,100.265
2315.1245,100.327
2316.0889,100.388
2317.0530,100.465
2318.0173,100.559
2318.9814,100.66
2319.9458,100.736
2320.9099,100.751
2321.8743,100.671
2322.8384,100.491
2323.8027,100.245
2324.7668,99.994
2325.7312,99.8067
2326.6953,99.7306
2327.6597,99.7716
2328.6238,99.8891
2329.5881,100.011
2330.5522,100.063
2331.5166,100.009
2332.4807,99.8599
2333.4451,99.6662
2334.4092,99.4858
2335.3735,99.3554
2336.3376,99.2781
2337.3020,99.2289
2338.2661,99.1723
2339.2305,99.0849
2340.1946,98.9779
2341.1589,98.9107
2342.1230,98.9781
2343.0874,99.2331
2344.0515,99.5722
2345.0159,99.7639
2345.9800,99.6692
2346.9443,99.3674
2347.9084,99.0549
2348.8728,98.8957
2349.8369,98.9445
2350.8013,99.1462
2351.7654,99.3579
2352.7297,99.4383
2353.6938,99.345
2354.6582,99.141
2355.6223,98.8991
2356.5867,98.6324
2357.5508,98.3398
2358.5151,98.07
2359.4792,97.9039
2360.4436,97.8845
2361.4077,97.9908
2362.3721,98.1802
2363.3362,98.4317
2364.3005,98.7422
2365.2646,99.1024
2366.2290,99.4868
2367.1931,99.8652
2368.1575,100.215
2369.1216,100.522
2370.0859,100.779
2371.0500,100.98
2372.0144,101.123
2372.9785,101.207
2373.9429,101.227
2374.9070,101.182
2375.8713,101.072
2376.8354,100.908
2377.7998,100.706
2378.7639,100.49
2379.7283,100.284
2380.6924,100.107
2381.6567,99.9708
2382.6208,99.8791
2383.5852,99.829
2384.5493,99.8127
2385.5137,99.8197
2386.4778,99.8391
2387.4421,99.8614
2388.4063,99.8797
2389.3706,99.8909
2390.3347,99.8948
2391.2991,99.894
2392.2632,99.8919
2393.2275,99.8908
2394.1917,99.8919
2395.1560,99.8947
2396.1201,99.8982
2397.0845,99.9019
2398.0486,99.9051
2399.0129,99.9075
2399.9771,99.9087
2400.9414,99.9075
2401.9055,99.9037
2402.8699,99.8979
2403.8340,99.8919
2404.7983,99.8879
2405.7625,99.8872
2406.7268,99.8898
2407.6909,99.8941
2408.6553,99.8979
2409.6194,99.8998
2410.5837,99.8997
2411.5479,99.8988
2412.5122,99.8988
2413.4763,99.9009
2414.4407,99.9051
2415.4048,99.9103
2416.3691,99.9153
2417.3333,99.9193
2418.2976,99.9227
2419.2617,99.9265
2420.2261,99.9314
2421.1902,99.9377
2422.1545,99.9444
2423.1187,99.9505
2424.0830,99.9556
2425.0471,99.9603
2426.0115,99.9655
2426.9756,99.9721
2427.9399,99.9802
2428.9041,99.9892
2429.8684,99.9984
2430.8325,100.007
2431.7969,100.015
2432.7610,100.022
2433.7253,100.026
2434.6895,100.026
2435.6538,100.024
2436.6179,100.021
2437.5823,100.019
2438.5464,100.022
2439.5107,100.03
2440.4749,100.041
2441.4392,100.052
2442.4033,100.061
2443.3677,100.066
2444.3318,100.068
2445.2961,100.069
2446.2603,100.069
2447.2246,100.068
2448.1887,100.067
2449.1531,100.065
2450.1172,100.063
2451.0815,100.063
2452.0457,100.065
2453.0100,100.069
2453.9741,100.074
2454.9385,100.077
2455.9026,100.076
2456.8669,100.073
2457.8311,100.068
2458.7954,100.063
2459.7595,100.06
2460.7239,100.06
2461.6880,100.063
2462.6523,100.068
2463.6165,100.074
2464.5808,100.079
2465.5449,100.082
2466.5093,100.081
2467.4734,100.076
2468.4377,100.07
2469.4019,100.063
2470.3662,100.058
2471.3303,100.056
2472.2947,100.056
2473.2588,100.058
2474.2231,100.061
2475.1873,100.063
2476.1516,100.062
2477.1157,100.058
2478.0801,100.051
2479.0442,100.045
2480.0085,100.041
2480.9727,100.04
2481.9370,100.044
2482.9011,100.049
2483.8655,100.055
2484.8296,100.059
2485.7939,100.061
2486.7581,100.062
2487.7224,100.063
2488.6865,100.064
2489.6509,100.065
2490.6150,100.067
2491.5793,100.069
2492.5435,100.071
2493.5078,100.073
2494.4719,100.076
2495.4363,100.079
2496.4004,100.083
2497.3647,100.087
2498.3289,100.09
2499.2932,100.093
2500.2573,100.096
2501.2217,100.099
2502.1858,100.103
2503.1501,100.108
2504.1143,100.114
2505.0786,100.12
2506.0427,100.125
2507.0071,100.129
2507.9712,100.132
2508.9355,100.133
2509.8997,100.134
2510.8640,100.135
2511.8281,100.135
2512.7925,100.136
2513.7566,100.139
2514.7209,100.146
2515.6851,100.157
2516.6494,100.171
2517.6135,100.187
2518.5779,100.199
2519.5420,100.205
2520.5063,100.207
2521.4705,100.206
2522.4348,100.206
2523.3989,100.208
2524.3633,100.212
2525.3274,100.215
2526.2917,100.216
2527.2559,100.216
2528.2202,100.215
2529.1843,100.216
2530.1487,100.218
2531.1128,100.221
2532.0771,100.224
2533.0413,100.226
2534.0056,100.227
2534.9697,100.23
2535.9341,100.234
2536.8982,100.238
2537.8625,100.243
2538.8267,100.247
2539.7910,100.25
2540.7551,100.252
2541.7195,100.255
2542.6836,100.259
2543.6479,100.265
2544.6121,100.273
2545.5764,100.282
2546.5405,100.29
2547.5049,100.294
2548.4690,100.295
2549.4333,100.294
2550.3975,100.291
2551.3618,100.291
2552.3259,100.295
2553.2903,100.304
2554.2544,100.317
2555.2188,100.332
2556.1829,100.347
2557.1472,100.359
2558.1113,100.369
2559.0757,100.376
2560.0398,100.38
2561.0042,100.381
2561.9683,100.38
2562.9326,100.376
2563.8967,100.372
2564.8611,100.368
2565.8252,100.368
2566.7896,100.371
2567.7537,100.379
2568.7180,100.39
2569.6821,100.4
2570.6465,100.407
2571.6106,100.41
2572.5750,100.409
2573.5391,100.406
2574.5034,100.403
2575.4675,100.402
2576.4319,100.401
2577.3960,100.402
2578.3604,100.403
2579.3245,100.404
2580.2888,100.405
2581.2529,100.406
2582.2173,100.407
2583.1814,100.409
2584.1458,100.412
2585.1099,100.414
2586.0742,100.415
2587.0383,100.414
2588.0027,100.411
2588.9668,100.405
2589.9312,100.399
2590.8953,100.392
2591.8596,100.388
2592.8237,100.387
2593.7881,100.39
2594.7522,100.397
2595.7166,100.405
2596.6807,100.413
2597.6450,100.418
2598.6091,100.422
2599.5735,100.425
2600.5376,100.429
2601.5020,100.434
2602.4661,100.44
2603.4304,100.446
2604.3945,100.449
2605.3589,100.452
2606.3230,100.455
2607.2874,100.46
2608.2515,100.467
2609.2158,100.475
2610.1799,100.481
2611.1443,100.485
2612.1084,100.487
2613.0728,100.488
2614.0369,100.489
2615.0012,100.49
2615.9653,100.49
2616.9297,100.49
2617.8938,100.492
2618.8582,100.495
2619.8223,100.503
2620.7866,100.514
2621.7507,100.527
2622.7151,100.538
2623.6792,100.546
2624.6436,100.55
2625.6077,100.55
2626.5720,100.549
2627.5361,100.548
2628.5005,100.547
2629.4646,100.547
2630.4290,100.546
2631.3931,100.545
2632.3574,100.544
2633.3215,100.543
2634.2859,100.543
2635.2500,100.544
2636.2144,100.546
2637.1785,100.547
2638.1428,100.547
2639.1069,100.547
2640.0713,100.547
2641.0354,100.549
2641.9998,100.554
2642.9639,100.561
2643.9282,100.567
2644.8923,100.571
2645.8567,100.571
2646.8208,100.569
2647.7852,100.567
2648.7493,100.566
2649.7136,100.567
2650.6777,100.57
2651.6421,100.572
2652.6062,100.575
2653.5706,100.579
2654.5347,100.585
2655.4990,100.596
2656.4631,100.609
2657.4275,100.621
2658.3916,100.631
2659.3560,100.635
2660.3201,100.634
2661.2844,100.63
2662.2485,100.625
2663.2129,100.623
2664.1770,100.623
2665.1414,100.625
2666.1055,100.629
2667.0698,100.634
2668.0339,100.639
2668.9983,100.643
2669.9624,100.646
2670.9268,100.649
2671.8909,100.653
2672.8552,100.657
2673.8193,100.661
2674.7837,100.665
2675.7478,100.668
2676.7122,100.668
2677.6763,100.663
2678.6406,100.653
2679.6047,100.64
2680.5691,100.626
2681.5332,100.614
2682.4976,100.607
2683.4617,100.604
2684.4260,100.604
2685.3901,100.602
2686.3545,100.596
2687.3186,100.584
2688.2830,100.57
2689.2471,100.557
2690.2114,100.547
2691.1755,100.542
2692.1399,100.541
2693.1040,100.541
2694.0684,100.538
2695.0325,100.531
2695.9968,100.522
2696.9609,100.513
2697.9253,100.505
2698.8894,100.5
2699.8538,100.497
2700.8179,100.493
2701.7822,100.487
2702.7463,100.477
2703.7107,100.464
2704.6748,100.449
2705.6392,100.435
2706.6033,100.42
2707.5676,100.407
2708.5317,100.394
2709.4961,100.384
2710.4602,100.375
2711.4246,100.367
2712.3887,100.357
2713.3530,100.344
2714.3171,100.325
2715.2815,100.302
2716.2456,100.277
2717.2100,100.254
2718.1741,100.237
2719.1384,100.228
2720.1025,100.224
2721.0669,100.222
2722.0310,100.219
2722.9954,100.212
2723.9595,100.201
2724.9238,100.187
2725.8879,100.173
2726.8523,100.161
2727.8164,100.152
2728.7808,100.146
2729.7449,100.142
2730.7092,100.138
2731.6733,100.135
2732.6377,100.132
2733.6018,100.129
2734.5662,100.123
2735.5303,100.114
2736.4946,100.102
2737.4587,100.089
2738.4231,100.074
2739.3872,100.062
2740.3516,100.054
2741.3157,100.05
2742.2800,100.051
2743.2441,100.057
2744.2085,100.065
2745.1726,100.073
2746.1370,100.079
2747.1011,100.081
2748.0654,100.077
2749.0295,100.07
2749.9939,100.062
2750.9580,100.057
2751.9224,100.055
2752.8865,100.058
2753.8508,100.062
2754.8149,100.065
2755.7793,100.064
2756.7434,100.058
2757.7078,100.047
2758.6719,100.035
2759.6362,100.023
2760.6003,100.015
2761.5647,100.013
2762.5288,100.014
2763.4932,100.016
2764.4573,100.018
2765.4216,100.016
2766.3857,100.009
2767.3501,100
2768.3142,99.9912
2769.2786,99.9843
2770.2427,99.98
2771.2070,99.9764
2772.1711,99.9699
2773.1355,99.957
2774.0996,99.9363
2775.0640,99.9097
2776.0281,99.881
2776.9924,99.8537
2777.9565,99.8288
2778.9209,99.8052
2779.8850,99.7808
2780.8494,99.752
2781.8135,99.7196
2782.7778,99.6866
2783.7419,99.6563
2784.7063,99.6302
2785.6704,99.6074
2786.6348,99.5845
2787.5989,99.5578
2788.5632,99.525
2789.5273,99.4853
2790.4917,99.4401
2791.4558,99.3916
2792.4202,99.3422
2793.3843,99.2938
2794.3486,99.247
2795.3127,99.2011
2796.2771,99.1539
2797.2412,99.1027
2798.2056,99.0457
2799.1697,98.983
2800.1340,98.9166
2801.0981,98.8502
2802.0625,98.787
2803.0266,98.7283
2803.9910,98.6737
2804.9551,98.6205
2805.9194,98.5656
2806.8835,98.5064
2807.8479,98.4413
2808.8120,98.3694
2809.7764,98.2906
2810.7405,98.2053
2811.7048,98.1146
2812.6689,98.0197
2813.6333,97.9225
2814.5974,97.8235
2815.5618,97.7223
2816.5259,97.6164
2817.4902,97.5022
2818.4543,97.3763
2819.4187,97.2361
2820.3828,97.0799
2821.3472,96.9071
2822.3113,96.7173
2823.2756,96.511
2824.2397,96.2893
2825.2041,96.0547
2826.1682,95.81
2827.1326,95.5575
2828.0967,95.2977
2829.0610,95.0294
2830.0251,94.7511
2830.9895,94.463
2831.9536,94.1679
2832.9180,93.8713
2833.8821,93.58
2834.8464,93.2996
2835.8105,93.0334
2836.7749,92.7828
2837.7390,92.5485
2838.7034,92.3322
2839.6675,92.1366
2840.6318,91.9633
2841.5959,91.8106
2842.5603,91.6715
2843.5244,91.5356
2844.4888,91.3931
2845.4529,91.2408
2846.4172,91.0858
2847.3813,90.9435
2848.3457,90.8319
2849.3098,90.7628
2850.2742,90.7364
2851.2383,90.7411
2852.2026,90.7588
2853.1667,90.7715
2854.1311,90.767
2855.0952,90.7394
2856.0596,90.6876
2857.0237,90.6111
2857.9880,90.509
2858.9521,90.3803
2859.9165,90.2248
2860.8806,90.0446
2861.8450,89.8438
2862.8091,89.6286
2863.7734,89.4061
2864.7375,89.1837
2865.7019,88.9685
2866.6660,88.7659
2867.6304,88.5792
2868.5945,88.409
2869.5588,88.2543
2870.5229,88.1128
2871.4873,87.9816
2872.4514,87.857
2873.4158,87.7349
2874.3799,87.6106
2875.3442,87.4796
2876.3083,87.3377
2877.2727,87.1816
2878.2368,87.0096
2879.2012,86.8224
2880.1653,86.6247
2881.1296,86.4258
2882.0938,86.238
2883.0581,86.0735
2884.0222,85.9403
2884.9866,85.8388
2885.9507,85.761
2886.9150,85.6924
2887.8792,85.6168
2888.8435,85.5226
2889.8076,85.4076
2890.7720,85.2808
2891.7361,85.1577
2892.7004,85.0499
2893.6646,84.9543
2894.6289,84.8497
2895.5930,84.7056
2896.5574,84.501
2897.5215,84.2426
2898.4858,83.9696
2899.4500,83.7404
2900.4143,83.6063
2901.3784,83.5877
2902.3428,83.6655
2903.3069,83.7932
2904.2712,83.9193
2905.2354,84.0084
2906.1997,84.048
2907.1638,84.0444
2908.1282,84.0111
2909.0923,83.9604
2910.0566,83.8999
2911.0208,83.8329
2911.9851,83.7598
2912.9492,83.6792
2913.9136,83.5893
2914.8777,83.4899
2915.8420,83.3845
2916.8062,83.2804
2917.7705,83.1866
2918.7346,83.1098
2919.6990,83.0527
2920.6631,83.0137
2921.6274,82.9891
2922.5916,82.9739
2923.5559,82.9624
2924.5200,82.9484
2925.4844,82.926
2926.4485,82.8921
2927.4128,82.8476
2928.3770,82.7977
2929.3413,82.749
2930.3054,82.7068
2931.2698,82.674
2932.2339,82.6524
2933.1982,82.6451
2934.1624,82.6575
2935.1267,82.6963
2936.0908,82.7655
2937.0552,82.865
2938.0193,82.9897
2938.9836,83.1329
2939.9478,83.29
2940.9121,83.4613
2941.8762,83.6501
2942.8406,83.8592
2943.8047,84.0856
2944.7690,84.318
2945.7332,84.539
2946.6975,84.7297
2947.6616,84.8766
2948.6260,84.975
2949.5901,85.0284
2950.5544,85.0445
2951.5186,85.0308
2952.4829,84.9911
2953.4470,84.9259
2954.4114,84.8346
2955.3755,84.7177
2956.3398,84.5775
2957.3040,84.4174
2958.2683,84.24
2959.2324,84.0458
2960.1968,83.8331
2961.1609,83.5997
2962.1252,83.3446
2963.0894,83.0697
2964.0537,82.7807
2965.0178,82.4866
2965.9822,82.1986
2966.9463,81.9292
2967.9106,81.6918
2968.8748,81.5012
2969.8391,81.3723
2970.8032,81.3178
2971.7676,81.3451
2972.7317,81.4532
2973.6960,81.633
2974.6602,81.8704
2975.6245,82.1516
2976.5886,82.4667
2977.5530,82.8109
2978.5171,83.1814
2979.4814,83.5734
2980.4456,83.976
2981.4099,84.3701
2982.3740,84.7323
2983.3384,85.0425
2984.3025,85.296
2985.2668,85.5123
2986.2310,85.7359
2987.1953,86.0232
2988.1594,86.4187
2989.1238,86.9319
2990.0879,87.5284
2991.0522,88.142
2992.0164,88.7031
2992.9807,89.1672
2993.9448,89.5297
2994.9092,89.8195
2995.8733,90.0783
2996.8376,90.3392
2997.8018,90.6161
2998.7661,90.9063
2999.7302,91.2016
3000.6946,91.497
3001.6587,91.7937
3002.6230,92.0964
3003.5872,92.4092
3004.5515,92.7326
3005.5156,93.0637
3006.4800,93.397
3007.4441,93.7265
3008.4084,94.0472
3009.3726,94.3571
3010.3369,94.6586
3011.3010,94.9571
3012.2654,95.2584
3013.2295,95.5647
3014.1938,95.8724
3015.1580,96.174
3016.1223,96.4617
3017.0864,96.7314
3018.0508,96.9833
3019.0149,97.2199
3019.9792,97.444
3020.9434,97.6569
3021.9077,97.8591
3022.8718,98.0519
3023.8362,98.2375
3024.8003,98.4177
3025.7646,98.5928
3026.7288,98.7604
3027.6931,98.9181
3028.6572,99.0648
3029.6216,99.202
3030.5857,99.3332
3031.5500,99.4607
3032.5142,99.5847
3033.4785,99.7034
3034.4426,99.8152
3035.4070,99.9202
3036.3711,100.02
3037.3354,100.089
3038.2996,100.149
3039.2639,100.2
3040.2280,100.239
3041.1924,100.262
3042.1565,100.269
3043.1208,100.261
3044.0850,100.244
3045.0493,100.223
3046.0134,100.2
3046.9778,100.18
3047.9419,100.161
3048.9063,100.143
3049.8704,100.12
3050.8347,100.087
3051.7988,100.043
3052.7632,99.9884
3053.7273,99.9284
3054.6917,99.8696
3055.6558,99.8175
3056.6201,99.7739
3057.5842,99.7369
3058.5486,99.7011
3059.5127,99.6603
3060.4771,99.61
3061.4412,99.5498
3062.4055,99.4835
3063.3696,99.4181
3064.3340,99.3604
3065.2981,99.3136
3066.2625,99.2758
3067.2266,99.2417
3068.1909,99.2059
3069.1550,99.1665
3070.1194,99.1255
3071.0835,99.0863
3072.0479,99.0504
3073.0120,99.0153
3073.9763,98.9752
3074.9404,98.9251
3075.9048,98.8644
3076.8689,98.7986
3077.8333,98.7369
3078.7974,98.6879
3079.7617,98.6551
3080.7258,98.6356
3081.6902,98.6217
3082.6543,98.6053
3083.6187,98.5817
3084.5828,98.5509
3085.5471,98.516
3086.5112,98.4801
3087.4756,98.4435
3088.4397,98.403
3089.4041,98.3542
3090.3682,98.2942
3091.3325,98.2238
3092.2966,98.1483
3093.2610,98.0746
3094.2251,98.008
3095.1895,97.9498
3096.1536,97.8967
3097.1179,97.8439
3098.0820,97.7881
3099.0464,97.7298
3100.0105,97.673
3100.9749,97.6223
3101.9390,97.5793
3102.9033,97.5419
3103.8674,97.5051
3104.8318,97.4641
3105.7959,97.4166
3106.7603,97.3632
3107.7244,97.3062
3108.6887,97.2465
3109.6528,97.1832
3110.6172,97.1144
3111.5813,97.0392
3112.5457,96.9599
3113.5098,96.8814
3114.4741,96.8094
3115.4382,96.7471
3116.4026,96.6938
3117.3667,96.6454
3118.3311,96.5967
3119.2952,96.5444
3120.2595,96.4876
3121.2236,96.4279
3122.1880,96.3685
3123.1521,96.313
3124.1165,96.2642
3125.0806,96.2227
3126.0449,96.1858
3127.0090,96.1476
3127.9734,96.1006
3128.9375,96.0403
3129.9019,95.9678
3130.8660,95.8906
3131.8303,95.82
3132.7944,95.7651
3133.7588,95.7282
3134.7229,95.7036
3135.6873,95.6806
3136.6514,95.6492
3137.6157,95.6043
3138.5798,95.5468
3139.5442,95.4817
3140.5083,95.4146
3141.4727,95.3493
3142.4368,95.2864
3143.4011,95.2249
3144.3652,95.1635
3145.3296,95.1025
3146.2937,95.0434
3147.2581,94.9886
3148.2222,94.9388
3149.1865,94.8925
3150.1506,94.8457
3151.1150,94.7934
3152.0791,94.7321
3153.0435,94.6618
3154.0076,94.5857
3154.9719,94.5085
3155.9360,94.4338
3156.9004,94.3632
3157.8645,94.2957
3158.8289,94.2297
3159.7930,94.1642
3160.7573,94.0996
3161.7214,94.0374
3162.6858,93.9788
3163.6499,93.9234
3164.6143,93.8692
3165.5784,93.8134
3166.5427,93.7541
3167.5068,93.6918
3168.4712,93.6284
3169.4353,93.619
3170.3997,93.5571
3171.3638,93.4924
3172.3281,93.4213
3173.2922,93.3422
3174.2566,93.2578
3175.2207,93.1751
3176.1851,93.1018
3177.1492,93.0418
3178.1135,92.9921
3179.0776,92.9443
3180.0420,92.8896
3181.0061,92.8236
3181.9705,92.7489
3182.9346,92.6732
3183.8989,92.6042
3184.8630,92.5449
3185.8274,92.4926
3186.7915,92.4408
3187.7559,92.3839
3188.7200,92.3205
3189.6843,92.2535
3190.6484,92.187
3191.6128,92.1231
3192.5769,92.0605
3193.5413,91.9961
3194.5054,91.9283
3195.4697,91.8586
3196.4338,91.7918
3197.3982,91.7322
3198.3623,91.6809
3199.3267,91.6348
3200.2908,91.5889
3201.2551,91.5393
3202.2192,91.4849
3203.1836,91.427
3204.1477,91.3675
3205.1121,91.3073
3206.0762,91.2462
3207.0405,91.1842
3208.0046,91.1223
3208.9690,91.0616
3209.9331,91.003
3210.8975,90.9463
3211.8616,90.891
3212.8259,90.8376
3213.7900,90.7878
3214.7544,90.7431
3215.7185,90.7029
3216.6829,90.6633
3217.6470,90.619
3218.6113,90.5662
3219.5754,90.5051
3220.5398,90.4403
3221.5039,90.3782
3222.4683,90.3235
3223.4324,90.2777
3224.3967,90.2389
3225.3608,90.2043
3226.3252,90.1713
3227.2893,90.1383
3228.2537,90.1045
3229.2178,90.0692
3230.1821,90.0319
3231.1462,89.9927
3232.1106,89.9525
3233.0747,89.912
3234.0391,89.8712
3235.0032,89.8291
3235.9675,89.7841
3236.9316,89.7354
3237.8960,89.6842
3238.8601,89.6327
3239.8245,89.5833
3240.7886,89.5375
3241.7529,89.4955
3242.7170,89.4571
3243.6814,89.4223
3244.6455,89.3906
3245.6099,89.3611
3246.5740,89.3309
3247.5383,89.2968
3248.5024,89.2564
3249.4668,89.2092
3250.4309,89.1568
3251.3953,89.1018
3252.3594,89.0472
3253.3237,88.9952
3254.2878,88.9477
3255.2522,88.9061
3256.2163,88.8715
3257.1807,88.844
3258.1448,88.8217
3259.1091,88.8007
3260.0732,88.7769
3261.0376,88.747
3262.0017,88.7106
3262.9661,88.6699
3263.9302,88.6283
3264.8945,88.5887
3265.8586,88.5516
3266.8230,88.5153
3267.7871,88.4767
3268.7515,88.433
3269.7156,88.3833
3270.6799,88.3296
3271.6440,88.276
3272.6084,88.228
3273.5725,88.1895
3274.5369,88.1619
3275.5010,88.1434
3276.4653,88.1296
3277.4294,88.116
3278.3938,88.0988
3279.3579,88.0763
3280.3223,88.0479
3281.2864,88.0145
3282.2507,87.9776
3283.2148,87.939
3284.1792,87.901
3285.1433,87.8648
3286.1077,87.8309
3287.0718,87.7985
3288.0361,87.7671
3289.0002,87.7368
3289.9646,87.7092
3290.9287,87.686
3291.8931,87.668
3292.8572,87.654
3293.8215,87.641
3294.7856,87.6255
3295.7500,87.6047
3296.7141,87.5781
3297.6785,87.547
3298.6426,87.5142
3299.6069,87.483
3300.5710,87.4563
3301.5354,87.4347
3302.4995,87.4165
3303.4639,87.398
3304.4280,87.3752
3305.3923,87.346
3306.3564,87.3118
3307.3208,87.276
3308.2849,87.243
3309.2493,87.2152
3310.2134,87.1923
3311.1777,87.1721
3312.1418,87.1518
3313.1062,87.1294
3314.0703,87.1036
3315.0347,87.0738
3315.9988,87.0409
3316.9631,87.0071
3317.9272,86.9764
3318.8916,86.9528
3319.8557,86.9378
3320.8201,86.9291
3321.7842,86.9203
3322.7485,86.9044
3323.7126,86.8774
3324.6770,86.8411
3325.6411,86.8026
3326.6055,86.7707
3327.5696,86.7512
3328.5339,86.7442
3329.4980,86.7442
3330.4624,86.7437
3331.4265,86.7364
3332.3909,86.7201
3333.3550,86.6965
3334.3193,86.67
3335.2834,86.645
3336.2478,86.6246
3337.2119,86.6097
3338.1763,86.5995
3339.1404,86.5928
3340.1047,86.588
3341.0688,86.5826
3342.0332,86.5745
3342.9973,86.5616
3343.9617,86.5439
3344.9258,86.5232
3345.8901,86.5028
3346.8542,86.4855
3347.8186,86.4724
3348.7827,86.462
3349.7471,86.4515
3350.7112,86.4385
3351.6755,86.4223
3352.6396,86.4044
3353.6040,86.3873
3354.5681,86.3738
3355.5325,86.3655
3356.4966,86.3626
3357.4609,86.3638
3358.4250,86.3669
3359.3894,86.3687
3360.3535,86.3665
3361.3179,86.3587
3362.2820,86.3462
3363.2463,86.3324
3364.2104,86.3224
3365.1748,86.3204
3366.1389,86.328
3367.1033,86.3426
3368.0674,86.3593
3369.0317,86.3732
3369.9958,86.3821
3370.9602,86.3865
3371.9243,86.3882
3372.8887,86.3882
3373.8528,86.3857
3374.8171,86.3801
3375.7813,86.3718
3376.7456,86.3641
3377.7097,86.361
3378.6741,86.3649
3379.6382,86.3744
3380.6025,86.3854
3381.5667,86.3931
3382.5310,86.3954
3383.4951,86.3932
3384.4595,86.389
3385.4236,86.3842
3386.3879,86.3788
3387.3521,86.3721
3388.3164,86.3652
3389.2805,86.3613
3390.2449,86.3636
3391.2090,86.3735
3392.1733,86.389
3393.1375,86.4068
3394.1018,86.4251
3395.0659,86.4455
3396.0303,86.4709
3396.9944,86.5018
3397.9587,86.5344
3398.9229,86.5618
3399.8872,86.5781
3400.8513,86.5827
3401.8157,86.5802
3402.7798,86.5777
3403.7441,86.5813
3404.7083,86.5943
3405.6726,86.6173
3406.6367,86.6491
3407.6011,86.6865
3408.5652,86.7242
3409.5295,86.7558
3410.4937,86.7759
3411.4580,86.7836
3412.4221,86.7836
3413.3865,86.7835
3414.3506,86.7889
3415.3149,86.8012
3416.2791,86.817
3417.2434,86.8332
3418.2075,86.851
3419.1719,86.8765
3420.1360,86.9163
3421.1003,86.9714
3422.0645,87.0342
3423.0288,87.0924
3423.9929,87.1357
3424.9573,87.1619
3425.9214,87.1768
3426.8857,87.1917
3427.8499,87.2164
3428.8142,87.2553
3429.7783,87.3058
3430.7427,87.3607
3431.7068,87.4134
3432.6711,87.4608
3433.6353,87.5036
3434.5996,87.5437
3435.5637,87.5811
3436.5281,87.6127
3437.4922,87.6345
3438.4565,87.6445
3439.4207,87.6442
3440.3850,87.6393
3441.3491,87.6363
3442.3135,87.6408
3443.2776,87.6564
3444.2419,87.6861
3445.2061,87.7326
3446.1704,87.7973
3447.1345,87.8775
3448.0989,87.9646
3449.0630,88.0473
3450.0273,88.1172
3450.9915,88.1714
3451.9558,88.212
3452.9199,88.2432
3453.8843,88.2691
3454.8484,88.292
3455.8127,88.313
3456.7769,88.3326
3457.7412,88.3518
3458.7053,88.3728
3459.6697,88.3975
3460.6338,88.4272
3461.5981,88.4617
3462.5623,88.4996
3463.5266,88.5399
3464.4907,88.5827
3465.4551,88.6289
3466.4192,88.679
3467.3835,88.7311
3468.3477,88.7809
3469.3120,88.8236
3470.2761,88.8575
3471.2405,88.8861
3472.2046,88.9166
3473.1689,88.9558
3474.1331,89.0044
3475.0974,89.0554
3476.0615,89.0972
3477.0259,89.1218
3477.9900,89.1304
3478.9543,89.1345
3479.9185,89.1503
3480.8828,89.1895
3481.8469,89.2521
3482.8113,89.3261
3483.7754,89.3957
3484.7397,89.4516
3485.7039,89.494
3486.6682,89.5311
3487.6323,89.5718
3488.5967,89.6199
3489.5608,89.6722
3490.5251,89.7214
3491.4893,89.7628
3492.4536,89.7975
3493.4177,89.8327
3494.3821,89.8764
3495.3462,89.9305
3496.3105,89.9869
3497.2747,90.0312
3498.2390,90.0529
3499.2031,90.0536
3500.1675,90.0499
3501.1316,90.0678
3502.0959,90.1297
3503.0601,90.2367
3504.0244,90.3651
3504.9885,90.4835
3505.9529,90.5735
3506.9170,90.6381
3507.8813,90.6945
3508.8455,90.7627
3509.8098,90.8539
3510.7739,90.9634
3511.7383,91.076
3512.7024,91.1769
3513.6667,91.2609
3514.6309,91.3311
3515.5952,91.3944
3516.5593,91.4553
3517.5237,91.514
3518.4878,91.5669
3519.4521,91.6101
3520.4163,91.643
3521.3806,91.6696
3522.3447,91.6976
3523.3091,91.7348
3524.2732,91.7863
3525.2375,91.8559
3526.2017,91.9483
3527.1660,92.0688
3528.1301,92.2178
3529.0945,92.3856
3530.0586,92.5531
3531.0229,92.7021
3531.9871,92.8246
3532.9514,92.9252
3533.9155,93.017
3534.8799,93.115
3535.8440,93.2274
3536.8083,93.3493
3537.7725,93.4639
3538.7368,93.5528
3539.7009,93.6062
3540.6653,93.6269
3541.6294,93.629
3542.5938,93.6357
3543.5579,93.678
3544.5222,93.782
3545.4863,93.9495
3546.4507,94.1488
3547.4148,94.3364
3548.3792,94.4876
3549.3433,94.6065
3550.3076,94.7151
3551.2717,94.8372
3552.2361,94.9845
3553.2002,95.15
3554.1646,95.3129
3555.1287,95.4544
3556.0930,95.5676
3557.0571,95.6548
3558.0215,95.7198
3558.9856,95.764
3559.9500,95.7866
3560.9141,95.7879
3561.8784,95.7716
3562.8425,95.7448
3563.8069,95.7212
3564.7710,95.7361
3565.7354,95.8542
3566.6995,96.1186
3567.6638,96.4672
3568.6279,96.7689
3569.5923,96.9527
3570.5564,97.0409
3571.5208,97.0887
3572.4849,97.1357
3573.4492,97.1947
3574.4133,97.2627
3575.3777,97.3343
3576.3418,97.4072
3577.3062,97.4813
3578.2703,97.5537
3579.2346,97.6172
3580.1987,97.6634
3581.1631,97.6905
3582.1272,97.7057
3583.0916,97.7196
3584.0557,97.7389
3585.0200,97.7714
3585.9841,97.8403
3586.9485,97.9682
3587.9126,98.1254
3588.8770,98.2369
3589.8411,98.2625
3590.8054,98.2241
3591.7695,98.1654
3592.7339,98.1162
3593.6980,98.0879
3594.6624,98.0792
3595.6265,98.0815
3596.5908,98.0893
3597.5549,98.112
3598.5193,98.1707
3599.4834,98.2799
3600.4478,98.4278
3601.4119,98.5788
3602.3762,98.6984
3603.3403,98.7771
3604.3047,98.828
3605.2688,98.8724
3606.2332,98.9299
3607.1973,99.0118
3608.1616,99.1088
3609.1257,99.1892
3610.0901,99.2201
3611.0542,99.1945
3612.0186,99.1343
3612.9829,99.0743
3613.9470,99.0427
3614.9114,99.0517
3615.8755,99.0997
3616.8398,99.1804
3617.8040,99.289
3618.7683,99.4046
3619.7324,99.4939
3620.6968,99.5069
3621.6609,99.4312
3622.6252,99.3198
3623.5894,99.2503
3624.5537,99.2704
3625.5178,99.3715
3626.4822,99.5035
3627.4463,99.6287
3628.4106,99.745
3629.3748,99.8198
3630.3391,99.7901
3631.3032,99.6688
3632.2676,99.5408
3633.2317,99.4778
3634.1960,99.4951
3635.1602,99.5609
3636.1245,99.6287
3637.0886,99.6668
3638.0530,99.6675
3639.0171,99.6386
3639.9814,99.5892
3640.9456,99.5265
3641.9099,99.4598
3642.8740,99.4043
3643.8384,99.3705
3644.8025,99.3432
3645.7668,99.2691
3646.7310,99.1007
3647.6953,98.9269
3648.6594,98.9832
3649.6238,99.2849
3650.5879,99.5395
3651.5522,99.5911
3652.5164,99.515
3653.4807,99.4227
3654.4448,99.3614
3655.4092,99.3217
3656.3733,99.2759
3657.3376,99.2075
3658.3018,99.1235
3659.2661,99.052
3660.2302,99.0189
3661.1946,99.0262
3662.1587,99.0527
3663.1230,99.0761
3664.0872,99.0942
3665.0515,99.1193
3666.0156,99.1527
3666.9800,99.1676
3667.9441,99.1317
3668.9084,99.0543
3669.8726,98.9824
3670.8369,98.9416
3671.8010,98.9231
3672.7654,98.9103
3673.7295,98.8975
3674.6938,98.9142
3675.6580,99.0077
3676.6223,99.152
3677.5864,99.2584
3678.5508,99.291
3679.5149,99.278
3680.4792,99.249
3681.4434,99.212
3682.4077,99.1719
3683.3718,99.1474
3684.3362,99.1613
3685.3003,99.2106
3686.2646,99.2478
3687.2288,99.2109
3688.1931,99.103
3689.1572,99.0223
3690.1216,99.0391
3691.0857,99.1151
3692.0500,99.1929
3693.0142,99.2604
3693.9785,99.3282
3694.9426,99.4036
3695.9070,99.4882
3696.8711,99.5825
3697.8354,99.6863
3698.7996,99.7955
3699.7639,99.9028
3700.7280,100.001
3701.6924,100.084
3702.6565,100.137
3703.6208,100.155
3704.5850,100.148
3705.5493,100.138
3706.5134,100.136
3707.4778,100.13
3708.4419,100.109
3709.4063,100.113
3710.3704,100.237
3711.3347,100.508
3712.2988,100.791
3713.2632,100.936
3714.2273,100.922
3715.1917,100.817
3716.1558,100.692
3717.1201,100.578
3718.0842,100.478
3719.0486,100.38
3720.0127,100.281
3720.9771,100.186
3721.9412,100.103
3722.9055,100.046
3723.8696,100.022
3724.8340,100.032
3725.7981,100.064
3726.7625,100.1
3727.7266,100.135
3728.6909,100.171
3729.6550,100.206
3730.6194,100.214
3731.5835,100.159
3732.5479,100.033
3733.5120,99.9065
3734.4763,99.9028
3735.4404,100.039
3736.4048,100.173
3737.3689,100.192
3738.3333,100.143
3739.2974,100.154
3740.2617,100.317
3741.2258,100.63
3742.1902,100.98
3743.1543,101.198
3744.1187,101.165
3745.0828,100.895
3746.0471,100.515
3747.0112,100.189
3747.9756,99.9799
3748.9397,99.9207
3749.9041,100.022
3750.8682,100.241
3751.8325,100.419
3752.7966,100.417
3753.7610,100.264
3754.7251,100.079
3755.6895,99.949
3756.6536,99.8998
3757.6179,99.922
3758.5820,99.9932
3759.5464,100.079
3760.5105,100.147
3761.4749,100.184
3762.4390,100.203
3763.4033,100.218
3764.3674,100.232
3765.3318,100.24
3766.2959,100.239
3767.2603,100.232
3768.2244,100.233
3769.1887,100.253
3770.1528,100.292
3771.1172,100.329
3772.0813,100.342
3773.0457,100.328
3774.0098,100.303
3774.9741,100.283
3775.9382,100.27
3776.9026,100.259
3777.8667,100.247
3778.8311,100.236
3779.7952,100.215
3780.7595,100.171
3781.7236,100.103
3782.6880,100.032
3783.6521,99.9882
3784.6165,99.992
3785.5806,100.046
3786.5449,100.131
3787.5090,100.216
3788.4734,100.28
3789.4375,100.315
3790.4019,100.326
3791.3660,100.319
3792.3303,100.287
3793.2944,100.22
3794.2588,100.118
3795.2229,100.001
3796.1873,99.9079
3797.1514,99.8692
3798.1157,99.8836
3799.0798,99.9212
3800.0442,99.9509
3801.0083,99.9637
3801.9727,99.9673
3802.9368,99.9749
3803.9011,100.009
3804.8652,100.091
3805.8296,100.211
3806.7937,100.322
3807.7581,100.362
3808.7222,100.306
3809.6865,100.201
3810.6506,100.131
3811.6150,100.152
3812.5791,100.246
3813.5435,100.335
3814.5076,100.332
3815.4719,100.213
3816.4360,100.024
3817.4004,99.8407
3818.3645,99.7251
3819.3289,99.7091
3820.2930,99.7846
3821.2573,99.8885
3822.2214,99.9322
3823.1858,99.8809
3824.1499,99.7797
3825.1143,99.7018
3826.0784,99.6932
3827.0427,99.7551
3828.0068,99.8544
3828.9712,99.9472
3829.9353,100.002
3830.8997,100.013
3831.8638,99.9947
3832.8281,99.9717
3833.7922,99.9558
3834.7566,99.9364
3835.7207,99.8869
3836.6851,99.7929
3837.6492,99.6783
3838.6135,99.5925
3839.5776,99.5697
3840.5420,99.6124
3841.5061,99.7053
3842.4705,99.8205
3843.4346,99.9148
3844.3989,99.9428
3845.3630,99.8879
3846.3274,99.7847
3847.2915,99.7085
3848.2559,99.7383
3849.2200,99.9132
3850.1843,100.202
3851.1484,100.512
3852.1128,100.77
3853.0769,100.963
3854.0413,101.002
3855.0054,100.782
3855.9697,100.391
3856.9338,100.019
3857.8982,99.7882
3858.8623,99.713
3859.8267,99.7307
3860.7908,99.7527
3861.7551,99.7254
3862.7192,99.6677
3863.6836,99.642
3864.6477,99.6859
3865.6121,99.7856
3866.5762,99.899
3867.5405,99.9809
3868.5046,100.001
3869.4690,99.9621
3870.4331,99.9027
3871.3975,99.8635
3872.3616,99.8555
3873.3259,99.8644
3874.2900,99.8772
3875.2544,99.8928
3876.2185,99.9125
3877.1829,99.9275
3878.1470,99.921
3879.1113,99.885
3880.0754,99.8368
3881.0398,99.8123
3882.0039,99.8418
3882.9683,99.9304
3883.9324,100.054
3884.8967,100.167
3885.8608,100.223
3886.8252,100.203
3887.7893,100.126
3888.7537,100.026
3889.7178,99.9331
3890.6821,99.8656
3891.6462,99.8321
3892.6106,99.8217
3893.5747,99.8168
3894.5391,99.8203
3895.5032,99.8499
3896.4675,99.9071
3897.4316,99.9677
3898.3960,100.002
3899.3601,99.9992
3900.3245,99.9707
3901.2886,99.9336
3902.2529,99.9046
3903.2170,99.8967
3904.1814,99.9085
3905.1455,99.923
3906.1099,99.9274
3907.0740,99.9258
3908.0383,99.9288
3909.0024,99.9386
3909.9668,99.9471
3910.9309,99.9449
3911.8953,99.9309
3912.8594,99.9124
3913.8237,99.8992
3914.7878,99.8973
3915.7522,99.9075
3916.7163,99.9245
3917.6807,99.9335
3918.6448,99.9141
3919.6091,99.856
3920.5732,99.7698
3921.5376,99.6809
3922.5017,99.6147
3923.4661,99.5861
3924.4302,99.5922
3925.3945,99.613
3926.3586,99.6264
3927.3230,99.6236
3928.2871,99.6097
3929.2515,99.5972
3930.2156,99.6009
3931.1799,99.6324
3932.1440,99.6901
3933.1084,99.7557
3934.0725,99.8085
3935.0369,99.8398
3936.0010,99.8523
3936.9653,99.8504
3937.9294,99.8343
3938.8938,99.8023
3939.8579,99.7569
3940.8223,99.7096
3941.7864,99.6773
3942.7507,99.6702
3943.7148,99.6823
3944.6792,99.6963
3945.6433,99.6959
3946.6077,99.6743
3947.5718,99.6376
3948.5361,99.6026
3949.5002,99.5862
3950.4646,99.5939
3951.4287,99.6176
3952.3931,99.6441
3953.3572,99.6627
3954.3215,99.6685
3955.2856,99.663
3956.2500,99.6515
3957.2141,99.6404
3958.1785,99.6341
3959.1426,99.6344
3960.1069,99.6413
3961.0710,99.6543
3962.0354,99.672
3962.9995,99.6916
3963.9639,99.7092
3964.9280,99.7203
3965.8923,99.7217
3966.8564,99.7117
3967.8208,99.6911
3968.7849,99.6632
3969.7493,99.6335
3970.7134,99.6081
3971.6777,99.5924
3972.6418,99.5893
3973.6062,99.5984
3974.5703,99.616
3975.5347,99.6365
3976.4988,99.6545
3977.4631,99.667
3978.4272,99.6735
3979.3916,99.6752
3980.3557,99.6736
3981.3201,99.6694
3982.2842,99.6622
3983.2485,99.6505
3984.2126,99.6336
3985.1770,99.6124
3986.1411,99.5906
3987.1055,99.573
3988.0696,99.5635
3989.0339,99.5625
3989.9980,99.5668
3990.9624,99.5713
3991.9265,99.5723
3992.8909,99.57
3993.8550,99.5671
3994.8193,99.5667
3995.7834,99.569
3996.7478,99.5715
3997.7119,99.5716
3998.6763,99.569
3999.6404,99.5666
4000.6047,99.3579

##### Extended Information
[Comments]
Sample name
Comment
User
Division
Company,HANKYONG

[Detailed Information]
Creation date,4/24/2024 12:23 PM

Data array type,Linear data array
Horizontal axis,Wavenumber [cm-1]
Vertical axis,%T
Start,649.893 cm-1
End,4000.6 cm-1
Data interval,0.964233 cm-1
Data points,3476    

[Measurement Information]
Model Name,FT/IR-4700typeA
Serial Number,D056761788

Accessory,ATR PRO ONE
Accessory S/N,C174761809
Incident angle,45 deg

Measurement Date,4/24/2024 12:22 PM

Light Source,Standard
Detector,TGS
Accumulation,32
Resolution,4 cm-1
Zero Filling,On
Apodization,Cosine
Gain,Auto (4)
Aperture,Auto (7.1 mm)
Scanning Speed,Auto (2 mm/sec)
Filter,Auto (30000 Hz)

