TITLE,
DATA TYPE,INFRARED SPECTRUM
ORIGIN,JASCO
OWNER,
DATE,24/04/24
TIME,16:04:11
SPECTROMETER/DATA SYSTEM,
LOCALE,1033
RESOLUTION,
DELTAX,0.964233
XUNITS,1/CM
YUNITS,TRANSMITTANCE
FIRSTX,  649.8934
LASTX, 4000.6047
NPOINTS,    3476
FIRSTY,    99.26925
MAXY,   101.86971
MINY,    84.97746
XYDATA
649.8934,99.2692
650.8576,99.3387
651.8218,99.4196
652.7861,99.4916
653.7503,99.534
654.7145,99.5
655.6788,99.4367
656.6430,99.3733
657.6072,99.3258
658.5715,99.2918
659.5357,99.2555
660.4999,99.2056
661.4642,99.1513
662.4284,99.1222
663.3926,99.1516
664.3569,99.2643
665.3211,99.4727
666.2853,99.7648
667.2496,100.067
668.2138,100.225
669.1780,100.149
670.1423,99.9579
671.1065,99.8143
672.0707,99.7756
673.0350,99.8266
673.9992,99.9294
674.9634,100.042
675.9277,100.131
676.8919,100.183
677.8561,100.208
678.8204,100.227
679.7846,100.255
680.7488,100.294
681.7131,100.34
682.6773,100.387
683.6415,100.432
684.6058,100.475
685.5700,100.513
686.5342,100.542
687.4985,100.555
688.4627,100.547
689.4269,100.518
690.3912,100.476
691.3554,100.43
692.3196,100.388
693.2839,100.349
694.2481,100.314
695.2123,100.282
696.1766,100.253
697.1408,100.226
698.1050,100.198
699.0693,100.173
700.0335,100.158
700.9977,100.157
701.9620,100.167
702.9262,100.179
703.8904,100.183
704.8547,100.17
705.8189,100.14
706.7831,100.101
707.7474,100.065
708.7116,100.042
709.6758,100.035
710.6401,100.039
711.6043,100.046
712.5685,100.044
713.5328,100.025
714.4970,99.992
715.4612,99.9313
716.4255,99.9096
717.3897,99.9176
718.3539,99.9632
719.3182,100.04
720.2824,100.129
721.2466,100.209
722.2109,100.267
723.1751,100.306
724.1393,100.338
725.1036,100.376
726.0678,100.423
727.0320,100.477
727.9963,100.529
728.9605,100.576
729.9247,100.62
730.8890,100.669
731.8532,100.73
732.8174,100.803
733.7817,100.88
734.7459,100.946
735.7101,100.991
736.6744,101.011
737.6386,101.011
738.6028,101.006
739.5671,101.012
740.5313,101.035
741.4955,101.074
742.4598,101.116
743.4240,101.144
744.3882,101.147
745.3525,101.122
746.3167,101.08
747.2809,101.037
748.2452,101.011
749.2094,101.012
750.1736,101.043
751.1379,101.094
752.1021,101.149
753.0663,101.191
754.0306,101.205
754.9948,101.19
755.9590,101.151
756.9233,101.103
757.8875,101.059
758.8517,101.025
759.8160,101.002
760.7802,100.986
761.7444,100.975
762.7087,100.969
763.6729,100.972
764.6371,100.982
765.6014,100.991
766.5656,100.991
767.5298,100.976
768.4941,100.946
769.4583,100.911
770.4225,100.881
771.3868,100.861
772.3510,100.853
773.3152,100.85
774.2795,100.846
775.2437,100.836
776.2079,100.821
777.1722,100.803
778.1364,100.785
779.1006,100.772
780.0649,100.766
781.0291,100.771
781.9933,100.786
782.9576,100.809
783.9218,100.835
784.8860,100.859
785.8503,100.882
786.8145,100.906
787.7787,100.935
788.7430,100.969
789.7072,101.002
790.6714,101.025
791.6357,101.028
792.5999,101.01
793.5641,100.979
794.5284,100.948
795.4926,100.932
796.4568,100.936
797.4211,100.956
798.3853,100.977
799.3495,100.985
800.3138,100.971
801.2780,100.937
802.2422,100.893
803.2065,100.852
804.1707,100.823
805.1349,100.809
806.0992,100.802
807.0634,100.797
808.0276,100.787
808.9919,100.773
809.9561,100.762
810.9203,100.757
811.8846,100.76
812.8488,100.767
813.8130,100.77
814.7773,100.762
815.7415,100.74
816.7057,100.706
817.6700,100.666
818.6342,100.625
819.5984,100.585
820.5627,100.547
821.5269,100.515
822.4911,100.493
823.4554,100.484
824.4196,100.489
825.3839,100.501
826.3481,100.509
827.3123,100.503
828.2766,100.478
829.2408,100.439
830.2050,100.394
831.1693,100.349
832.1335,100.31
833.0977,100.277
834.0620,100.252
835.0262,100.237
835.9904,100.237
836.9547,100.251
837.9189,100.274
838.8831,100.298
839.8474,100.312
840.8116,100.312
841.7758,100.297
842.7401,100.293
843.7043,100.287
844.6685,100.281
845.6328,100.277
846.5970,100.276
847.5612,100.275
848.5255,100.273
849.4897,100.264
850.4539,100.245
851.4182,100.218
852.3824,100.184
853.3466,100.15
854.3109,100.119
855.2751,100.092
856.2393,100.069
857.2036,100.049
858.1678,100.029
859.1320,100.009
860.0963,99.9882
861.0605,99.9642
862.0247,99.9359
862.9890,99.903
863.9532,99.8658
864.9174,99.8238
865.8817,99.7741
866.8459,99.7118
867.8101,99.6323
868.7744,99.5349
869.7386,99.4239
870.7028,99.3075
871.6671,99.1928
872.6313,99.0828
873.5955,98.9748
874.5598,98.8636
875.5240,98.7464
876.4882,98.6261
877.4525,98.511
878.4167,98.4111
879.3809,98.3333
880.3452,98.2778
881.3094,98.2382
882.2736,98.2043
883.2379,98.1661
884.2021,98.1164
885.1663,98.0526
886.1306,97.9763
887.0948,97.8925
888.0590,97.8078
889.0233,97.7276
889.9875,97.6546
890.9517,97.5879
891.9160,97.5251
892.8802,97.4657
893.8444,97.4133
894.8087,97.3763
895.7729,97.3635
896.7371,97.3803
897.7014,97.425
898.6656,97.4902
899.6298,97.5664
900.5941,97.646
901.5583,97.7256
902.5225,97.8043
903.4868,97.8819
904.4510,97.9568
905.4152,98.026
906.3795,98.0866
907.3437,98.1364
908.3079,98.1738
909.2722,98.1979
910.2364,98.2084
911.2006,98.2068
912.1649,98.1966
913.1291,98.1823
914.0933,98.1671
915.0576,98.1513
916.0218,98.1319
916.9860,98.1051
917.9503,98.069
918.9145,98.025
919.8787,97.9766
920.8430,97.9272
921.8072,97.8779
922.7714,97.8271
923.7357,97.7721
924.6999,97.7107
925.6641,97.6417
926.6284,97.5655
927.5926,97.483
928.5568,97.3964
929.5211,97.3083
930.4853,97.2214
931.4495,97.1361
932.4138,97.0493
933.3780,96.9541
934.3422,96.8428
935.3065,96.7116
936.2707,96.5626
937.2349,96.4033
938.1992,96.2428
939.1634,96.0874
940.1276,95.9377
941.0919,95.7904
942.0561,95.6412
943.0203,95.4877
943.9846,95.3298
944.9488,95.168
945.9130,95.0018
946.8773,94.83
947.8415,94.6528
948.8057,94.4737
949.7700,94.2994
950.7342,94.1372
951.6984,93.9911
952.6627,93.8598
953.6269,93.737
954.5911,93.6157
955.5554,93.4911
956.5196,93.3633
957.4838,93.2359
958.4481,93.1134
959.4123,92.9981
960.3765,92.8889
961.3408,92.7825
962.3050,92.6748
963.2692,92.5623
964.2335,92.4432
965.1977,92.3171
966.1619,92.1841
967.1262,92.0451
968.0904,91.9002
969.0546,91.7492
970.0189,91.5903
970.9831,91.4211
971.9473,91.2393
972.9116,91.0435
973.8758,90.8345
974.8400,90.6146
975.8043,90.3868
976.7685,90.1538
977.7327,89.9178
978.6970,89.6806
979.6612,89.4447
980.6254,89.2136
981.5897,88.9914
982.5539,88.7824
983.5181,88.5907
984.4824,88.4193
985.4466,88.27
986.4108,88.1426
987.3751,88.0345
988.3393,87.9413
989.3035,87.8576
990.2678,87.7785
991.2320,87.6999
992.1962,87.6192
993.1605,87.534
994.1247,87.4424
995.0889,87.3431
996.0532,87.237
997.0174,87.1275
997.9816,87.0192
998.9459,86.9166
999.9101,86.8212
1000.8743,86.7314
1001.8386,86.6436
1002.8028,86.5547
1003.7670,86.4641
1004.7313,86.3744
1005.6955,86.2898
1006.6597,86.2137
1007.6240,86.1464
1008.5882,86.0842
1009.5524,86.0213
1010.5167,85.9522
1011.4809,85.8746
1012.4451,85.7909
1013.4094,85.7063
1014.3736,85.626
1015.3378,85.5524
1016.3021,85.4851
1017.2663,85.4229
1018.2305,85.3664
1019.1948,85.3181
1020.1590,85.2793
1021.1232,85.247
1022.0875,85.2131
1023.0517,85.1687
1024.0160,85.1111
1024.9802,85.0482
1025.9445,84.9974
1026.9087,84.9775
1027.8729,84.9986
1028.8372,85.0562
1029.8014,85.1333
1030.7656,85.2087
1031.7299,85.2658
1032.6941,85.2976
1033.6583,85.3064
1034.6226,85.3012
1035.5868,85.2937
1036.5510,85.2951
1037.5153,85.3129
1038.4795,85.3482
1039.4437,85.3955
1040.4080,85.4443
1041.3722,85.484
1042.3364,85.5083
1043.3007,85.5175
1044.2649,85.5178
1045.2291,85.5178
1046.1934,85.5242
1047.1576,85.5412
1048.1218,85.571
1049.0861,85.616
1050.0503,85.6792
1051.0145,85.7635
1051.9788,85.8701
1052.9430,85.9988
1053.9072,86.1495
1054.8715,86.3246
1055.8357,86.5294
1056.7999,86.7683
1057.7642,87.0394
1058.7284,87.3297
1059.6926,87.6171
1060.6569,87.8772
1061.6211,88.0939
1062.5853,88.2675
1063.5496,88.4157
1064.5138,88.5677
1065.4780,88.7506
1066.4423,88.9761
1067.4065,89.2339
1068.3707,89.4973
1069.3350,89.7367
1070.2992,89.9323
1071.2634,90.0808
1072.2277,90.1948
1073.1919,90.2953
1074.1561,90.4038
1075.1204,90.5341
1076.0846,90.6902
1077.0488,90.8666
1078.0131,91.0535
1078.9773,91.2412
1079.9415,91.4239
1080.9058,91.6012
1081.8700,91.776
1082.8342,91.9501
1083.7985,92.1212
1084.7627,92.2821
1085.7269,92.4235
1086.6912,92.5396
1087.6554,92.6314
1088.6196,92.7064
1089.5839,92.7747
1090.5481,92.8432
1091.5123,92.9127
1092.4766,92.9793
1093.4408,93.0381
1094.4050,93.0878
1095.3693,93.1323
1096.3335,93.1777
1097.2977,93.2289
1098.2620,93.2865
1099.2262,93.3472
1100.1904,93.4078
1101.1547,93.4685
1102.1189,93.535
1103.0831,93.6163
1104.0474,93.7197
1105.0116,93.8475
1105.9758,93.9957
1106.9401,94.1567
1107.9043,94.3235
1108.8685,94.493
1109.8328,94.6661
1110.7970,94.8453
1111.7612,95.0319
1112.7255,95.2244
1113.6897,95.4187
1114.6539,95.6103
1115.6182,95.7958
1116.5824,95.9726
1117.5466,96.139
1118.5109,96.293
1119.4751,96.4333
1120.4393,96.5606
1121.4036,96.6783
1122.3678,96.7921
1123.3320,96.9074
1124.2963,97.0269
1125.2605,97.1495
1126.2247,97.271
1127.1890,97.3872
1128.1532,97.4962
1129.1174,97.5994
1130.0817,97.7003
1131.0459,97.8015
1132.0101,97.9025
1132.9744,97.9984
1133.9386,98.0816
1134.9028,98.1447
1135.8671,98.1831
1136.8313,98.1959
1137.7955,98.1858
1138.7598,98.1575
1139.7240,98.1153
1140.6882,98.0625
1141.6525,98.0007
1142.6167,97.9311
1143.5809,97.8545
1144.5452,97.7721
1145.5094,97.6856
1146.4736,97.5966
1147.4379,97.5069
1148.4021,97.4181
1149.3663,97.3322
1150.3306,97.2516
1151.2948,97.1789
1152.2590,97.1165
1153.2233,97.0662
1154.1875,97.0289
1155.1517,97.0044
1156.1160,96.9921
1157.0802,96.9914
1158.0444,97.0022
1159.0087,97.0252
1159.9729,97.0627
1160.9371,97.118
1161.9014,97.1951
1162.8656,97.2971
1163.8298,97.4244
1164.7941,97.5745
1165.7583,97.7418
1166.7225,97.9199
1167.6868,98.1027
1168.6510,98.2862
1169.6152,98.4678
1170.5795,98.6455
1171.5437,98.817
1172.5079,98.9791
1173.4722,99.1291
1174.4364,99.2653
1175.4006,99.3881
1176.3649,99.4987
1177.3291,99.5988
1178.2933,99.6886
1179.2576,99.7674
1180.2218,99.8335
1181.1860,99.8857
1182.1503,99.952
1183.1145,100.006
1184.0787,100.048
1185.0430,100.082
1186.0072,100.109
1186.9714,100.13
1187.9357,100.143
1188.8999,100.148
1189.8641,100.144
1190.8284,100.128
1191.7926,100.102
1192.7568,100.067
1193.7211,100.026
1194.6853,99.9802
1195.6495,99.9331
1196.6138,99.8869
1197.5780,99.8439
1198.5422,99.8059
1199.5065,99.7344
1200.4707,99.7108
1201.4349,99.6895
1202.3992,99.6687
1203.3634,99.6483
1204.3276,99.6301
1205.2919,99.6166
1206.2561,99.6088
1207.2203,99.605
1208.1846,99.6006
1209.1488,99.5902
1210.1130,99.5687
1211.0773,99.533
1212.0415,99.4823
1213.0057,99.4177
1213.9700,99.3415
1214.9342,99.2567
1215.8984,99.1666
1216.8627,99.0738
1217.8269,98.9798
1218.7911,98.8857
1219.7554,98.7924
1220.7196,98.701
1221.6838,98.6127
1222.6481,98.528
1223.6123,98.4463
1224.5765,98.3662
1225.5408,98.2867
1226.5050,98.2087
1227.4692,98.1348
1228.4335,98.0683
1229.3977,98.0116
1230.3619,97.9653
1231.3262,97.929
1232.2904,97.9021
1233.2546,97.8843
1234.2189,97.8744
1235.1831,97.8681
1236.1473,97.8586
1237.1116,97.838
1238.0758,97.8027
1239.0400,97.7562
1240.0043,97.7093
1240.9685,97.6752
1241.9327,97.6634
1242.8970,97.6741
1243.8612,97.6996
1244.8254,97.7288
1245.7897,97.754
1246.7539,97.7742
1247.7181,97.7944
1248.6824,97.821
1249.6466,97.8576
1250.6108,97.9034
1251.5751,97.9544
1252.5393,98.0066
1253.5035,98.0583
1254.4678,98.1104
1255.4320,98.1648
1256.3962,98.2227
1257.3605,98.2837
1258.3247,98.3461
1259.2889,98.4078
1260.2532,98.4682
1261.2174,98.5289
1262.1816,98.5924
1263.1459,98.661
1264.1101,98.7349
1265.0743,98.8115
1266.0386,98.8865
1267.0028,98.9563
1267.9670,99.0193
1268.9313,99.0771
1269.8955,99.1333
1270.8597,99.1919
1271.8240,99.2552
1272.7882,99.3227
1273.7524,99.3915
1274.7167,99.458
1275.6809,99.5186
1276.6451,99.5715
1277.6094,99.6167
1278.5736,99.6561
1279.5378,99.6924
1280.5021,99.7287
1281.4663,99.7669
1282.4305,99.8073
1283.3948,99.8487
1284.3590,99.8891
1285.3232,99.9264
1286.2875,99.9586
1287.2517,99.9843
1288.2159,100.003
1289.1802,100.014
1290.1444,100.02
1291.1086,100.02
1292.0729,100.015
1293.0371,100.005
1294.0013,99.9888
1294.9656,99.9649
1295.9298,99.9319
1296.8940,99.8893
1297.8583,99.8372
1298.8225,99.7765
1299.7867,99.6988
1300.7510,99.5977
1301.7152,99.4955
1302.6794,99.395
1303.6437,99.2972
1304.6079,99.2018
1305.5721,99.1066
1306.5364,99.0094
1307.5006,98.909
1308.4648,98.8056
1309.4291,98.7006
1310.3933,98.5962
1311.3575,98.4941
1312.3218,98.3962
1313.2860,98.304
1314.2502,98.2194
1315.2145,98.1446
1316.1787,98.0823
1317.1429,98.0349
1318.1072,98.0036
1319.0714,97.9879
1320.0356,97.9851
1320.9999,97.9918
1321.9641,98.0047
1322.9283,98.0214
1323.8926,98.04
1324.8568,98.0594
1325.8210,98.0782
1326.7853,98.0957
1327.7495,98.1118
1328.7137,98.1276
1329.6780,98.1449
1330.6422,98.1654
1331.6064,98.1901
1332.5707,98.2187
1333.5349,98.2507
1334.4991,98.2865
1335.4634,98.329
1336.4276,98.3818
1337.3918,98.4462
1338.3561,98.5163
1339.3203,98.5806
1340.2845,98.6308
1341.2488,98.6672
1342.2130,98.6953
1343.1772,98.7192
1344.1415,98.7394
1345.1057,98.7545
1346.0699,98.762
1347.0342,98.7591
1347.9984,98.7437
1348.9626,98.7156
1349.9269,98.6761
1350.8911,98.6276
1351.8553,98.5728
1352.8196,98.5139
1353.7838,98.4525
1354.7480,98.3889
1355.7123,98.3231
1356.6765,98.2545
1357.6407,98.183
1358.6050,98.109
1359.5692,98.0343
1360.5334,97.9605
1361.4977,97.8866
1362.4619,97.8118
1363.4261,97.7393
1364.3904,97.6749
1365.3546,97.6196
1366.3188,97.5683
1367.2831,97.515
1368.2473,97.4568
1369.2115,97.3956
1370.1758,97.3377
1371.1400,97.2907
1372.1042,97.2604
1373.0685,97.2466
1374.0327,97.2412
1374.9969,97.2327
1375.9612,97.2158
1376.9254,97.1936
1377.8896,97.1731
1378.8539,97.1608
1379.8181,97.1601
1380.7823,97.1702
1381.7466,97.1862
1382.7108,97.2036
1383.6750,97.2229
1384.6393,97.2517
1385.6035,97.2976
1386.5677,97.3562
1387.5320,97.4076
1388.4962,97.4305
1389.4604,97.4158
1390.4247,97.3662
1391.3889,97.2938
1392.3531,97.22
1393.3174,97.172
1394.2816,97.169
1395.2458,97.2065
1396.2101,97.2561
1397.1743,97.2844
1398.1385,97.2752
1399.1028,97.2331
1400.0670,97.1735
1401.0313,97.1097
1401.9955,97.0478
1402.9597,96.9883
1403.9240,96.9297
1404.8882,96.8712
1405.8524,96.8136
1406.8167,96.7592
1407.7809,96.709
1408.7451,96.6626
1409.7094,96.6197
1410.6736,96.5822
1411.6378,96.5515
1412.6021,96.5252
1413.5663,96.4968
1414.5305,96.4609
1415.4948,96.4204
1416.4590,96.3888
1417.4232,96.3801
1418.3875,96.3945
1419.3517,96.4224
1420.3159,96.4607
1421.2802,96.5115
1422.2444,96.5714
1423.2086,96.6331
1424.1729,96.6904
1425.1371,96.7404
1426.1013,96.7852
1427.0656,96.831
1428.0298,96.8857
1428.9940,96.9519
1429.9583,97.0211
1430.9225,97.078
1431.8867,97.1106
1432.8510,97.1192
1433.8152,97.1181
1434.7794,97.1308
1435.7437,97.1724
1436.7079,97.2361
1437.6721,97.3048
1438.6364,97.3718
1439.6006,97.4342
1440.5648,97.4854
1441.5291,97.5185
1442.4933,97.532
1443.4575,97.528
1444.4218,97.5104
1445.3860,97.4827
1446.3502,97.4479
1447.3145,97.409
1448.2787,97.3705
1449.2429,97.3375
1450.2072,97.3111
1451.1714,97.2838
1452.1356,97.2448
1453.0999,97.1924
1454.0641,97.1493
1455.0283,97.1628
1455.9926,97.2604
1456.9568,97.372
1457.9210,97.4018
1458.8853,97.3843
1459.8495,97.3831
1460.8137,97.4007
1461.7780,97.4261
1462.7422,97.4707
1463.7064,97.5575
1464.6707,97.689
1465.6349,97.8331
1466.5991,97.951
1467.5634,98.0238
1468.5276,98.0532
1469.4918,98.0617
1470.4561,98.0944
1471.4203,98.2065
1472.3845,98.4188
1473.3488,98.681
1474.3130,98.9227
1475.2772,99.124
1476.2415,99.296
1477.2057,99.4451
1478.1699,99.5714
1479.1342,99.6744
1480.0984,99.7549
1481.0626,99.8129
1482.0269,99.8476
1482.9911,99.8577
1483.9553,99.8449
1484.9196,99.8171
1485.8838,99.7907
1486.8480,99.7865
1487.8123,99.8101
1488.7765,99.8305
1489.7407,99.8061
1490.7050,99.7405
1491.6692,99.6646
1492.6334,99.5909
1493.5977,99.517
1494.5619,99.4454
1495.5261,99.3865
1496.4904,99.3425
1497.4546,99.2971
1498.4188,99.236
1499.3831,99.1655
1500.3473,99.0896
1501.3115,98.9949
1502.2758,98.8674
1503.2400,98.7157
1504.2042,98.5893
1505.1685,98.5781
1506.1327,98.7345
1507.0969,98.92
1508.0612,98.949
1509.0254,98.886
1509.9896,98.8368
1510.9539,98.809
1511.9181,98.7839
1512.8823,98.7575
1513.8466,98.739
1514.8108,98.7363
1515.7750,98.7449
1516.7393,98.7513
1517.7035,98.748
1518.6677,98.7424
1519.6320,98.7489
1520.5962,98.772
1521.5604,98.8001
1522.5247,98.8181
1523.4889,98.8192
1524.4531,98.8027
1525.4174,98.7693
1526.3816,98.722
1527.3458,98.6658
1528.3101,98.6042
1529.2743,98.5372
1530.2385,98.4655
1531.2028,98.3942
1532.1670,98.3272
1533.1312,98.2598
1534.0955,98.183
1535.0597,98.0911
1536.0239,97.9839
1536.9882,97.8753
1537.9524,97.8116
1538.9166,97.8674
1539.8809,98.0562
1540.8451,98.2085
1541.8093,98.1646
1542.7736,98.0188
1543.7378,97.8934
1544.7020,97.811
1545.6663,97.7558
1546.6305,97.7126
1547.5947,97.6718
1548.5590,97.6279
1549.5232,97.5796
1550.4874,97.5286
1551.4517,97.4772
1552.4159,97.4237
1553.3801,97.3628
1554.3444,97.2934
1555.3086,97.233
1556.2728,97.2287
1557.2371,97.3217
1558.2013,97.4251
1559.1655,97.3756
1560.1298,97.2527
1561.0940,97.2026
1562.0582,97.2192
1563.0225,97.2439
1563.9867,97.2419
1564.9509,97.2085
1565.9152,97.1575
1566.8794,97.1069
1567.8436,97.0641
1568.8079,97.0197
1569.7721,96.9615
1570.7363,96.8905
1571.7006,96.8132
1572.6648,96.7331
1573.6290,96.6575
1574.5933,96.5993
1575.5575,96.561
1576.5217,96.5241
1577.4860,96.4766
1578.4502,96.4271
1579.4144,96.3782
1580.3787,96.32
1581.3429,96.2455
1582.3071,96.1573
1583.2714,96.0632
1584.2356,95.9697
1585.1998,95.8798
1586.1641,95.7937
1587.1283,95.7118
1588.0925,95.6357
1589.0568,95.5671
1590.0210,95.507
1590.9852,95.4554
1591.9495,95.4118
1592.9137,95.3762
1593.8779,95.3478
1594.8422,95.3246
1595.8064,95.3051
1596.7706,95.2889
1597.7349,95.2778
1598.6991,95.2744
1599.6633,95.2799
1600.6276,95.2931
1601.5918,95.3099
1602.5560,95.3251
1603.5203,95.3354
1604.4845,95.3399
1605.4487,95.3404
1606.4130,95.3391
1607.3772,95.3365
1608.3414,95.3303
1609.3057,95.3163
1610.2699,95.2907
1611.2341,95.2514
1612.1984,95.1986
1613.1626,95.139
1614.1268,95.089
1615.0911,95.0659
1616.0553,95.0676
1617.0195,95.0736
1617.9838,95.0739
1618.9480,95.0721
1619.9122,95.0691
1620.8765,95.0641
1621.8407,95.0597
1622.8049,95.0566
1623.7692,95.0486
1624.7334,95.0309
1625.6976,95.0063
1626.6619,94.9824
1627.6261,94.9636
1628.5903,94.9484
1629.5546,94.9284
1630.5188,94.8928
1631.4830,94.8367
1632.4473,94.7714
1633.4115,94.7307
1634.3757,94.7514
1635.3400,94.8235
1636.3042,94.8794
1637.2684,94.8896
1638.2327,94.8851
1639.1969,94.886
1640.1611,94.8852
1641.1254,94.8696
1642.0896,94.8344
1643.0538,94.7917
1644.0181,94.7736
1644.9823,94.8176
1645.9465,94.9217
1646.9108,95.0193
1647.8750,95.0473
1648.8392,95.0039
1649.8035,94.9234
1650.7677,94.8643
1651.7319,94.9095
1652.6962,95.0898
1653.6604,95.2846
1654.6246,95.3963
1655.5889,95.4746
1656.5531,95.5508
1657.5173,95.6114
1658.4816,95.6494
1659.4458,95.6806
1660.4100,95.7327
1661.3743,95.8208
1662.3385,95.9292
1663.3027,96.0264
1664.2670,96.0944
1665.2312,96.1369
1666.1954,96.1742
1667.1597,96.2381
1668.1239,96.3568
1669.0881,96.5227
1670.0524,96.6824
1671.0166,96.7869
1671.9808,96.8368
1672.9451,96.8638
1673.9093,96.9
1674.8735,96.9637
1675.8378,97.0532
1676.8020,97.1515
1677.7662,97.2369
1678.7305,97.2925
1679.6947,97.3145
1680.6589,97.3214
1681.6232,97.3568
1682.5874,97.4635
1683.5516,97.6226
1684.5159,97.7571
1685.4801,97.8425
1686.4443,97.9117
1687.4086,97.9807
1688.3728,98.0415
1689.3370,98.0817
1690.3013,98.0945
1691.2655,98.081
1692.2297,98.0511
1693.1940,98.0228
1694.1582,98.0177
1695.1224,98.0505
1696.0867,98.1167
1697.0509,98.1884
1698.0151,98.2326
1698.9794,98.242
1699.9436,98.2426
1700.9078,98.2656
1701.8721,98.3175
1702.8363,98.3806
1703.8005,98.4316
1704.7648,98.4549
1705.7290,98.4456
1706.6932,98.4095
1707.6575,98.3593
1708.6217,98.3058
1709.5859,98.2513
1710.5502,98.1919
1711.5144,98.1245
1712.4786,98.0526
1713.4429,97.9887
1714.4071,97.9486
1715.3713,97.9332
1716.3356,97.905
1717.2998,97.8198
1718.2640,97.6992
1719.2283,97.5994
1720.1925,97.5348
1721.1567,97.4841
1722.1210,97.4238
1723.0852,97.3431
1724.0494,97.2439
1725.0137,97.1357
1725.9779,97.0288
1726.9421,96.9288
1727.9064,96.8348
1728.8706,96.7429
1729.8348,96.6537
1730.7991,96.579
1731.7633,96.5399
1732.7275,96.5495
1733.6918,96.5977
1734.6560,96.668
1735.6202,96.7574
1736.5845,96.8669
1737.5487,96.9952
1738.5129,97.1438
1739.4772,97.3144
1740.4414,97.4995
1741.4056,97.6818
1742.3699,97.8463
1743.3341,97.9899
1744.2983,98.1178
1745.2626,98.2366
1746.2268,98.3531
1747.1910,98.4752
1748.1553,98.6075
1749.1195,98.7423
1750.0837,98.8623
1751.0480,98.9577
1752.0122,99.0339
1752.9764,99.0996
1753.9407,99.1606
1754.9049,99.2189
1755.8691,99.2735
1756.8334,99.3205
1757.7976,99.356
1758.7618,99.3818
1759.7261,99.4053
1760.6903,99.433
1761.6545,99.4642
1762.6188,99.4909
1763.5830,99.5053
1764.5472,99.5052
1765.5115,99.4943
1766.4757,99.4802
1767.4399,99.4727
1768.4042,99.4819
1769.3684,99.5148
1770.3326,99.5698
1771.2969,99.63
1772.2611,99.6695
1773.2253,99.677
1774.1896,99.6634
1775.1538,99.6442
1776.1180,99.6269
1777.0823,99.6237
1778.0465,99.63
1779.0107,99.6423
1779.9750,99.6563
1780.9392,99.6658
1781.9034,99.6682
1782.8677,99.6669
1783.8319,99.6674
1784.7961,99.6717
1785.7604,99.6761
1786.7246,99.6741
1787.6888,99.6623
1788.6531,99.6461
1789.6173,99.6403
1790.5815,99.6606
1791.5458,99.7063
1792.5100,99.7549
1793.4742,99.7852
1794.4385,99.7953
1795.4027,99.7929
1796.3669,99.7852
1797.3312,99.7786
1798.2954,99.7798
1799.2596,99.792
1800.2239,99.8106
1801.1881,99.8273
1802.1523,99.8364
1803.1166,99.8372
1804.0808,99.8316
1805.0450,99.822
1806.0093,99.8114
1806.9735,99.8044
1807.9377,99.806
1808.9020,99.8183
1809.8662,99.8381
1810.8304,99.8574
1811.7947,99.8693
1812.7589,99.8714
1813.7231,99.866
1814.6874,99.8574
1815.6516,99.8498
1816.6158,99.845
1817.5801,99.8417
1818.5443,99.8366
1819.5085,99.8276
1820.4728,99.8152
1821.4370,99.8033
1822.4012,99.7969
1823.3655,99.7985
1824.3297,99.8063
1825.2939,99.8169
1826.2582,99.829
1827.2224,99.8446
1828.1866,99.8653
1829.1509,99.8873
1830.1151,99.902
1831.0793,99.9043
1832.0436,99.8973
1833.0078,99.8873
1833.9720,99.8798
1834.9363,99.8777
1835.9005,99.8808
1836.8647,99.8836
1837.8290,99.8779
1838.7932,99.8589
1839.7574,99.8289
1840.7217,99.7983
1841.6859,99.7831
1842.6501,99.7966
1843.6144,99.836
1844.5786,99.8807
1845.5428,99.9107
1846.5071,99.9224
1847.4713,99.9222
1848.4355,99.917
1849.3998,99.911
1850.3640,99.9062
1851.3282,99.9028
1852.2925,99.9002
1853.2567,99.8976
1854.2209,99.8951
1855.1852,99.8934
1856.1494,99.8924
1857.1136,99.8916
1858.0779,99.8899
1859.0421,99.8869
1860.0063,99.8828
1860.9706,99.8782
1861.9348,99.8731
1862.8990,99.8678
1863.8633,99.8634
1864.8275,99.8641
1865.7917,99.8767
1866.7560,99.9048
1867.7202,99.9414
1868.6844,99.9695
1869.6487,99.9776
1870.6129,99.9696
1871.5771,99.9556
1872.5414,99.9423
1873.5056,99.9321
1874.4698,99.9256
1875.4341,99.9224
1876.3983,99.9207
1877.3625,99.9187
1878.3268,99.916
1879.2910,99.9143
1880.2552,99.9153
1881.2195,99.9191
1882.1837,99.9236
1883.1479,99.9247
1884.1122,99.9202
1885.0764,99.9113
1886.0406,99.9025
1887.0049,99.8999
1887.9691,99.9066
1888.9333,99.92
1889.8976,99.9339
1890.8618,99.9429
1891.8260,99.9463
1892.7903,99.9466
1893.7545,99.947
1894.7188,99.9487
1895.6830,99.9505
1896.6472,99.9501
1897.6115,99.9462
1898.5757,99.94
1899.5399,99.9337
1900.5042,99.9292
1901.4684,99.9267
1902.4326,99.9253
1903.3969,99.9242
1904.3611,99.9236
1905.3253,99.9254
1906.2896,99.9316
1907.2538,99.9429
1908.2180,99.9572
1909.1823,99.9697
1910.1465,99.9747
1911.1107,99.9695
1912.0750,99.9553
1913.0392,99.9368
1914.0034,99.9198
1914.9677,99.9103
1915.9319,99.9116
1916.8961,99.9216
1917.8604,99.9343
1918.8246,99.9445
1919.7888,99.9515
1920.7531,99.9577
1921.7173,99.9653
1922.6815,99.9732
1923.6458,99.9777
1924.6100,99.9759
1925.5742,99.968
1926.5385,99.9572
1927.5027,99.9476
1928.4669,99.9417
1929.4312,99.9396
1930.3954,99.9392
1931.3596,99.939
1932.3239,99.9388
1933.2881,99.9401
1934.2523,99.9436
1935.2166,99.9481
1936.1808,99.951
1937.1450,99.9499
1938.1093,99.9452
1939.0735,99.9403
1940.0377,99.9402
1941.0020,99.9479
1941.9662,99.9615
1942.9304,99.9751
1943.8947,99.9828
1944.8589,99.9832
1945.8231,99.9783
1946.7874,99.9715
1947.7516,99.9657
1948.7158,99.9618
1949.6801,99.96
1950.6443,99.9598
1951.6085,99.961
1952.5728,99.9633
1953.5370,99.9664
1954.5012,99.969
1955.4655,99.9703
1956.4297,99.9703
1957.3939,99.9699
1958.3582,99.9706
1959.3224,99.9725
1960.2866,99.9747
1961.2509,99.9757
1962.2151,99.9752
1963.1793,99.9746
1964.1436,99.9765
1965.1078,99.9823
1966.0720,99.9911
1967.0363,99.999
1968.0005,100.003
1968.9647,100.001
1969.9290,99.997
1970.8932,99.9928
1971.8574,99.9906
1972.8217,99.9904
1973.7859,99.9908
1974.7501,99.9902
1975.7144,99.9883
1976.6786,99.9859
1977.6428,99.9842
1978.6071,99.9833
1979.5713,99.9824
1980.5355,99.9808
1981.4998,99.9786
1982.4640,99.977
1983.4282,99.9772
1984.3925,99.9797
1985.3567,99.9832
1986.3209,99.986
1987.2852,99.987
1988.2494,99.9865
1989.2136,99.9861
1990.1779,99.9871
1991.1421,99.9897
1992.1063,99.9927
1993.0706,99.9948
1994.0348,99.9956
1994.9990,99.9958
1995.9633,99.9961
1996.9275,99.9971
1997.8917,99.9986
1998.8560,99.9999
1999.8202,99.9999
2000.7844,99.998
2001.7487,99.9943
2002.7129,99.9895
2003.6771,99.9849
2004.6414,99.9814
2005.6056,99.9797
2006.5698,99.9793
2007.5341,99.9789
2008.4983,99.9768
2009.4625,99.9717
2010.4268,99.964
2011.3910,99.9556
2012.3552,99.9499
2013.3195,99.9495
2014.2837,99.9554
2015.2479,99.9659
2016.2122,99.977
2017.1764,99.9844
2018.1406,99.9851
2019.1049,99.9795
2020.0691,99.9707
2021.0333,99.9623
2021.9976,99.9573
2022.9618,99.9563
2023.9260,99.9579
2024.8903,99.9594
2025.8545,99.9586
2026.8187,99.9549
2027.7830,99.9495
2028.7472,99.9446
2029.7114,99.9421
2030.6757,99.9427
2031.6399,99.9453
2032.6041,99.948
2033.5684,99.9493
2034.5326,99.9484
2035.4968,99.9457
2036.4611,99.9427
2037.4253,99.9408
2038.3895,99.9411
2039.3538,99.9434
2040.3180,99.9467
2041.2822,99.9496
2042.2465,99.9508
2043.2107,99.9497
2044.1749,99.9469
2045.1392,99.9432
2046.1034,99.9394
2047.0676,99.9355
2048.0320,99.9313
2048.9961,99.9269
2049.9604,99.9228
2050.9246,99.9201
2051.8889,99.9195
2052.8530,99.921
2053.8174,99.9236
2054.7815,99.9258
2055.7458,99.9265
2056.7100,99.9253
2057.6743,99.9229
2058.6384,99.9204
2059.6028,99.919
2060.5669,99.9194
2061.5313,99.9217
2062.4954,99.9257
2063.4597,99.9302
2064.4238,99.9337
2065.3882,99.9346
2066.3523,99.9321
2067.3167,99.9266
2068.2808,99.9199
2069.2451,99.9138
2070.2092,99.9101
2071.1736,99.9091
2072.1377,99.9101
2073.1021,99.912
2074.0662,99.9138
2075.0305,99.9148
2075.9946,99.9146
2076.9590,99.9125
2077.9231,99.908
2078.8875,99.9009
2079.8516,99.8921
2080.8159,99.8838
2081.7800,99.8784
2082.7444,99.8777
2083.7085,99.8818
2084.6729,99.8888
2085.6370,99.8959
2086.6013,99.9008
2087.5654,99.9021
2088.5298,99.9001
2089.4939,99.8959
2090.4583,99.8911
2091.4224,99.8869
2092.3867,99.8841
2093.3508,99.883
2094.3152,99.8831
2095.2793,99.8836
2096.2437,99.8832
2097.2078,99.8809
2098.1721,99.8767
2099.1362,99.872
2100.1006,99.8692
2101.0647,99.8694
2102.0291,99.8725
2102.9932,99.8763
2103.9575,99.8778
2104.9216,99.8749
2105.8860,99.8682
2106.8501,99.8603
2107.8145,99.8546
2108.7786,99.8533
2109.7429,99.856
2110.7070,99.8607
2111.6714,99.8648
2112.6355,99.8662
2113.5999,99.8648
2114.5640,99.8616
2115.5283,99.8582
2116.4924,99.8558
2117.4568,99.855
2118.4209,99.8555
2119.3853,99.8564
2120.3494,99.8565
2121.3137,99.8553
2122.2778,99.8527
2123.2422,99.8496
2124.2063,99.8471
2125.1707,99.8462
2126.1348,99.8469
2127.0991,99.8485
2128.0632,99.8501
2129.0276,99.8509
2129.9917,99.851
2130.9561,99.8509
2131.9202,99.8518
2132.8845,99.8547
2133.8486,99.8599
2134.8130,99.8667
2135.7771,99.8737
2136.7415,99.8789
2137.7056,99.8806
2138.6699,99.8785
2139.6340,99.8735
2140.5984,99.8675
2141.5625,99.8624
2142.5269,99.8594
2143.4910,99.8588
2144.4553,99.8602
2145.4194,99.8633
2146.3838,99.8676
2147.3479,99.8728
2148.3123,99.8782
2149.2764,99.8829
2150.2407,99.8857
2151.2048,99.8864
2152.1692,99.8851
2153.1333,99.8829
2154.0977,99.8813
2155.0618,99.8811
2156.0261,99.8828
2156.9902,99.8859
2157.9546,99.8895
2158.9187,99.893
2159.8831,99.896
2160.8472,99.8986
2161.8115,99.9012
2162.7756,99.9037
2163.7400,99.906
2164.7041,99.9076
2165.6685,99.9082
2166.6326,99.9082
2167.5969,99.9081
2168.5610,99.9085
2169.5254,99.9096
2170.4895,99.9106
2171.4539,99.9109
2172.4180,99.91
2173.3823,99.9083
2174.3464,99.9069
2175.3108,99.907
2176.2749,99.9092
2177.2393,99.9132
2178.2034,99.9184
2179.1677,99.9239
2180.1318,99.9293
2181.0962,99.9344
2182.0603,99.9388
2183.0247,99.942
2183.9888,99.9437
2184.9531,99.9438
2185.9172,99.9431
2186.8816,99.9427
2187.8457,99.9435
2188.8101,99.9462
2189.7742,99.9502
2190.7385,99.9545
2191.7026,99.9578
2192.6670,99.9592
2193.6311,99.9584
2194.5955,99.9561
2195.5596,99.9537
2196.5239,99.9525
2197.4880,99.9534
2198.4524,99.9566
2199.4165,99.9614
2200.3809,99.9667
2201.3450,99.9713
2202.3093,99.9744
2203.2734,99.9759
2204.2378,99.9757
2205.2019,99.9743
2206.1663,99.9723
2207.1304,99.9703
2208.0947,99.9697
2209.0588,99.9713
2210.0232,99.9756
2210.9873,99.982
2211.9517,99.9886
2212.9158,99.9929
2213.8801,99.993
2214.8442,99.9883
2215.8086,99.9806
2216.7727,99.9727
2217.7371,99.968
2218.7012,99.9685
2219.6655,99.9738
2220.6296,99.9814
2221.5940,99.9877
2222.5581,99.9899
2223.5225,99.9872
2224.4866,99.9811
2225.4509,99.9746
2226.4150,99.9703
2227.3794,99.9693
2228.3435,99.971
2229.3079,99.9733
2230.2720,99.9746
2231.2363,99.9744
2232.2004,99.9733
2233.1648,99.9725
2234.1289,99.9729
2235.0933,99.9743
2236.0574,99.9758
2237.0217,99.976
2237.9858,99.9743
2238.9502,99.9706
2239.9143,99.9654
2240.8787,99.9596
2241.8428,99.9539
2242.8071,99.9492
2243.7712,99.9459
2244.7356,99.9445
2245.6997,99.9445
2246.6641,99.9452
2247.6282,99.9452
2248.5925,99.9431
2249.5566,99.938
2250.5210,99.93
2251.4851,99.9197
2252.4495,99.9081
2253.4136,99.8963
2254.3779,99.8854
2255.3420,99.8763
2256.3064,99.8696
2257.2705,99.8657
2258.2349,99.8643
2259.1990,99.8643
2260.1633,99.8646
2261.1274,99.864
2262.0918,99.8619
2263.0559,99.8583
2264.0203,99.8536
2264.9844,99.8482
2265.9487,99.8426
2266.9128,99.8371
2267.8772,99.8318
2268.8413,99.8269
2269.8057,99.822
2270.7698,99.817
2271.7341,99.8125
2272.6982,99.8095
2273.6626,99.8095
2274.6267,99.8134
2275.5911,99.8206
2276.5552,99.8294
2277.5195,99.8373
2278.4836,99.8426
2279.4480,99.8445
2280.4121,99.8432
2281.3765,99.8349
2282.3406,99.8231
2283.3049,99.8067
2284.2690,99.7846
2285.2334,99.7562
2286.1975,99.7225
2287.1619,99.6849
2288.1260,99.6454
2289.0903,99.6051
2290.0544,99.5649
2291.0188,99.525
2291.9829,99.4855
2292.9473,99.4466
2293.9114,99.4078
2294.8757,99.3684
2295.8398,99.3272
2296.8042,99.2832
2297.7683,99.2359
2298.7327,99.1851
2299.6968,99.1311
2300.6611,99.0736
2301.6252,99.0117
2302.5896,98.9442
2303.5537,98.87
2304.5181,98.7898
2305.4822,98.7059
2306.4465,98.6219
2307.4106,98.5412
2308.3750,98.4658
2309.3391,98.3958
2310.3035,98.3293
2311.2676,98.2635
2312.2319,98.1957
2313.1960,98.1234
2314.1604,98.0448
2315.1245,97.9593
2316.0889,97.869
2317.0530,97.7786
2318.0173,97.6954
2318.9814,97.6258
2319.9458,97.573
2320.9099,97.5351
2321.8743,97.5076
2322.8384,97.4871
2323.8027,97.4742
2324.7668,97.4724
2325.7312,97.4845
2326.6953,97.5098
2327.6597,97.5433
2328.6238,97.5771
2329.5881,97.6041
2330.5522,97.6206
2331.5166,97.628
2332.4807,97.6311
2333.4451,97.6354
2334.4092,97.6459
2335.3735,97.6661
2336.3376,97.6965
2337.3020,97.7329
2338.2661,97.7679
2339.2305,97.7951
2340.1946,97.8135
2341.1589,97.8235
2342.1230,97.8166
2343.0874,97.7778
2344.0515,97.7105
2345.0159,97.6483
2345.9800,97.6183
2346.9443,97.6095
2347.9084,97.5889
2348.8728,97.5325
2349.8369,97.4451
2350.8013,97.3658
2351.7654,97.3593
2352.7297,97.4893
2353.6938,97.7763
2354.6582,98.1801
2355.6223,98.6299
2356.5867,99.0794
2357.5508,99.5077
2358.5151,99.8802
2359.4792,100.142
2360.4436,100.254
2361.4077,100.214
2362.3721,100.047
2363.3362,99.7818
2364.3005,99.4483
2365.2646,99.0832
2366.2290,98.7247
2367.1931,98.401
2368.1575,98.1266
2369.1216,97.9078
2370.0859,97.7491
2371.0500,97.6546
2372.0144,97.6259
2372.9785,97.6594
2373.9429,97.7463
2374.9070,97.8746
2375.8713,98.0318
2376.8354,98.2067
2377.7998,98.3901
2378.7639,98.5742
2379.7283,98.7521
2380.6924,98.9177
2381.6567,99.0662
2382.6208,99.1944
2383.5852,99.3018
2384.5493,99.3895
2385.5137,99.46
2386.4778,99.516
2387.4421,99.5591
2388.4063,99.5903
2389.3706,99.6102
2390.3347,99.6201
2391.2991,99.6224
2392.2632,99.621
2393.2275,99.6202
2394.1917,99.6235
2395.1560,99.6319
2396.1201,99.6438
2397.0845,99.6552
2398.0486,99.6621
2399.0129,99.6623
2399.9771,99.6564
2400.9414,99.6483
2401.9055,99.6424
2402.8699,99.642
2403.8340,99.6469
2404.7983,99.6546
2405.7625,99.6618
2406.7268,99.6662
2407.6909,99.6674
2408.6553,99.6662
2409.6194,99.6638
2410.5837,99.6603
2411.5479,99.6559
2412.5122,99.6508
2413.4763,99.6461
2414.4407,99.6432
2415.4048,99.643
2416.3691,99.6449
2417.3333,99.6479
2418.2976,99.6507
2419.2617,99.6527
2420.2261,99.6543
2421.1902,99.6558
2422.1545,99.6576
2423.1187,99.6599
2424.0830,99.6626
2425.0471,99.6659
2426.0115,99.6701
2426.9756,99.675
2427.9399,99.6801
2428.9041,99.6841
2429.8684,99.6861
2430.8325,99.6854
2431.7969,99.6828
2432.7610,99.6794
2433.7253,99.6767
2434.6895,99.6753
2435.6538,99.6751
2436.6179,99.6752
2437.5823,99.6749
2438.5464,99.6743
2439.5107,99.6739
2440.4749,99.6747
2441.4392,99.6772
2442.4033,99.6808
2443.3677,99.6845
2444.3318,99.6875
2445.2961,99.6894
2446.2603,99.6905
2447.2246,99.6912
2448.1887,99.692
2449.1531,99.6928
2450.1172,99.6937
2451.0815,99.6943
2452.0457,99.6944
2453.0100,99.6935
2453.9741,99.6908
2454.9385,99.6864
2455.9026,99.681
2456.8669,99.6761
2457.8311,99.6735
2458.7954,99.6743
2459.7595,99.6784
2460.7239,99.6841
2461.6880,99.6896
2462.6523,99.6932
2463.6165,99.6944
2464.5808,99.6937
2465.5449,99.6927
2466.5093,99.6929
2467.4734,99.695
2468.4377,99.6986
2469.4019,99.702
2470.3662,99.7032
2471.3303,99.701
2472.2947,99.6959
2473.2588,99.6904
2474.2231,99.6873
2475.1873,99.6886
2476.1516,99.6942
2477.1157,99.7021
2478.0801,99.7092
2479.0442,99.7133
2480.0085,99.714
2480.9727,99.7124
2481.9370,99.7106
2482.9011,99.7104
2483.8655,99.7124
2484.8296,99.7158
2485.7939,99.7193
2486.7581,99.7213
2487.7224,99.7212
2488.6865,99.7188
2489.6509,99.7147
2490.6150,99.71
2491.5793,99.7058
2492.5435,99.7031
2493.5078,99.7025
2494.4719,99.7036
2495.4363,99.7049
2496.4004,99.705
2497.3647,99.703
2498.3289,99.6998
2499.2932,99.6974
2500.2573,99.6982
2501.2217,99.7029
2502.1858,99.71
2503.1501,99.7157
2504.1143,99.7167
2505.0786,99.7118
2506.0427,99.7031
2507.0071,99.6946
2507.9712,99.6901
2508.9355,99.6903
2509.8997,99.6934
2510.8640,99.6961
2511.8281,99.6961
2512.7925,99.6938
2513.7566,99.6918
2514.7209,99.6927
2515.6851,99.6977
2516.6494,99.7057
2517.6135,99.7149
2518.5779,99.7235
2519.5420,99.7308
2520.5063,99.7367
2521.4705,99.7403
2522.4348,99.7402
2523.3989,99.735
2524.3633,99.7249
2525.3274,99.7124
2526.2917,99.702
2527.2559,99.6977
2528.2202,99.7017
2529.1843,99.7127
2530.1487,99.7272
2531.1128,99.7413
2532.0771,99.752
2533.0413,99.7583
2534.0056,99.7608
2534.9697,99.7608
2535.9341,99.7595
2536.8982,99.7576
2537.8625,99.7553
2538.8267,99.7529
2539.7910,99.751
2540.7551,99.7503
2541.7195,99.7511
2542.6836,99.7535
2543.6479,99.7572
2544.6121,99.7615
2545.5764,99.7658
2546.5405,99.7697
2547.5049,99.7729
2548.4690,99.7748
2549.4333,99.775
2550.3975,99.7729
2551.3618,99.7682
2552.3259,99.7619
2553.2903,99.7553
2554.2544,99.7503
2555.2188,99.7483
2556.1829,99.7499
2557.1472,99.7543
2558.1113,99.7602
2559.0757,99.7656
2560.0398,99.7691
2561.0042,99.7699
2561.9683,99.768
2562.9326,99.7641
2563.8967,99.7594
2564.8611,99.7551
2565.8252,99.7521
2566.7896,99.7509
2567.7537,99.7516
2568.7180,99.7539
2569.6821,99.7573
2570.6465,99.7612
2571.6106,99.7652
2572.5750,99.7686
2573.5391,99.7708
2574.5034,99.7713
2575.4675,99.7701
2576.4319,99.7674
2577.3960,99.7641
2578.3604,99.7614
2579.3245,99.7604
2580.2888,99.7616
2581.2529,99.7649
2582.2173,99.7694
2583.1814,99.7741
2584.1458,99.7777
2585.1099,99.7795
2586.0742,99.779
2587.0383,99.7765
2588.0027,99.7726
2588.9668,99.769
2589.9312,99.767
2590.8953,99.7674
2591.8596,99.7698
2592.8237,99.7727
2593.7881,99.774
2594.7522,99.7729
2595.7166,99.7696
2596.6807,99.7659
2597.6450,99.7636
2598.6091,99.7635
2599.5735,99.7651
2600.5376,99.7669
2601.5020,99.7678
2602.4661,99.7692
2603.4304,99.7752
2604.3945,99.7818
2605.3589,99.7885
2606.3230,99.7939
2607.2874,99.796
2608.2515,99.7941
2609.2158,99.7897
2610.1799,99.7858
2611.1443,99.7851
2612.1084,99.7887
2613.0728,99.7957
2614.0369,99.8039
2615.0012,99.8114
2615.9653,99.8176
2616.9297,99.8234
2617.8938,99.8294
2618.8582,99.836
2619.8223,99.8426
2620.7866,99.8481
2621.7507,99.8518
2622.7151,99.8535
2623.6792,99.8535
2624.6436,99.8523
2625.6077,99.8507
2626.5720,99.8496
2627.5361,99.85
2628.5005,99.8523
2629.4646,99.856
2630.4290,99.86
2631.3931,99.8631
2632.3574,99.8652
2633.3215,99.8669
2634.2859,99.8694
2635.2500,99.8739
2636.2144,99.8809
2637.1785,99.8904
2638.1428,99.9022
2639.1069,99.9152
2640.0713,99.9278
2641.0354,99.938
2641.9998,99.9434
2642.9639,99.9435
2643.9282,99.9398
2644.8923,99.9355
2645.8567,99.9345
2646.8208,99.9385
2647.7852,99.9462
2648.7493,99.9543
2649.7136,99.9589
2650.6777,99.9581
2651.6421,99.9528
2652.6062,99.946
2653.5706,99.9414
2654.5347,99.9411
2655.4990,99.9454
2656.4631,99.9531
2657.4275,99.9622
2658.3916,99.9711
2659.3560,99.9791
2660.3201,99.9857
2661.2844,99.9909
2662.2485,99.9939
2663.2129,99.9941
2664.1770,99.9913
2665.1414,99.9864
2666.1055,99.9814
2667.0698,99.9794
2668.0339,99.9822
2668.9983,99.9898
2669.9624,99.9997
2670.9268,100.008
2671.8909,100.011
2672.8552,100.009
2673.8193,100.003
2674.7837,99.9987
2675.7478,99.998
2676.7122,100.002
2677.6763,100.009
2678.6406,100.017
2679.6047,100.023
2680.5691,100.027
2681.5332,100.03
2682.4976,100.032
2683.4617,100.033
2684.4260,100.033
2685.3901,100.032
2686.3545,100.031
2687.3186,100.03
2688.2830,100.03
2689.2471,100.031
2690.2114,100.033
2691.1755,100.035
2692.1399,100.04
2693.1040,100.047
2694.0684,100.055
2695.0325,100.062
2695.9968,100.065
2696.9609,100.065
2697.9253,100.062
2698.8894,100.058
2699.8538,100.056
2700.8179,100.055
2701.7822,100.055
2702.7463,100.056
2703.7107,100.056
2704.6748,100.059
2705.6392,100.063
2706.6033,100.069
2707.5676,100.074
2708.5317,100.076
2709.4961,100.076
2710.4602,100.073
2711.4246,100.071
2712.3887,100.071
2713.3530,100.073
2714.3171,100.078
2715.2815,100.084
2716.2456,100.089
2717.2100,100.095
2718.1741,100.1
2719.1384,100.103
2720.1025,100.105
2721.0669,100.104
2722.0310,100.1
2722.9954,100.093
2723.9595,100.083
2724.9238,100.073
2725.8879,100.064
2726.8523,100.061
2727.8164,100.063
2728.7808,100.069
2729.7449,100.076
2730.7092,100.08
2731.6733,100.082
2732.6377,100.082
2733.6018,100.082
2734.5662,100.084
2735.5303,100.087
2736.4946,100.089
2737.4587,100.089
2738.4231,100.086
2739.3872,100.083
2740.3516,100.082
2741.3157,100.083
2742.2800,100.087
2743.2441,100.094
2744.2085,100.102
2745.1726,100.109
2746.1370,100.114
2747.1011,100.115
2748.0654,100.113
2749.0295,100.108
2749.9939,100.104
2750.9580,100.102
2751.9224,100.103
2752.8865,100.109
2753.8508,100.115
2754.8149,100.12
2755.7793,100.12
2756.7434,100.118
2757.7078,100.113
2758.6719,100.11
2759.6362,100.11
2760.6003,100.114
2761.5647,100.121
2762.5288,100.128
2763.4932,100.132
2764.4573,100.132
2765.4216,100.129
2766.3857,100.125
2767.3501,100.123
2768.3142,100.124
2769.2786,100.129
2770.2427,100.133
2771.2070,100.133
2772.1711,100.126
2773.1355,100.114
2774.0996,100.1
2775.0640,100.089
2776.0281,100.084
2776.9924,100.086
2777.9565,100.093
2778.9209,100.102
2779.8850,100.109
2780.8494,100.112
2781.8135,100.111
2782.7778,100.105
2783.7419,100.098
2784.7063,100.091
2785.6704,100.085
2786.6348,100.083
2787.5989,100.083
2788.5632,100.082
2789.5273,100.079
2790.4917,100.072
2791.4558,100.063
2792.4202,100.055
2793.3843,100.049
2794.3486,100.046
2795.3127,100.046
2796.2771,100.045
2797.2412,100.041
2798.2056,100.031
2799.1697,100.016
2800.1340,99.9992
2801.0981,99.983
2802.0625,99.9686
2803.0266,99.9519
2803.9910,99.938
2804.9551,99.9252
2805.9194,99.912
2806.8835,99.8973
2807.8479,99.8809
2808.8120,99.8631
2809.7764,99.8442
2810.7405,99.8245
2811.7048,99.8039
2812.6689,99.7822
2813.6333,99.7589
2814.5974,99.7332
2815.5618,99.7049
2816.5259,99.6744
2817.4902,99.6432
2818.4543,99.6132
2819.4187,99.5853
2820.3828,99.5592
2821.3472,99.5336
2822.3113,99.507
2823.2756,99.4791
2824.2397,99.45
2825.2041,99.4198
2826.1682,99.387
2827.1326,99.3493
2828.0967,99.3042
2829.0610,99.2513
2830.0251,99.1917
2830.9895,99.1278
2831.9536,99.0612
2832.9180,98.9926
2833.8821,98.9215
2834.8464,98.848
2835.8105,98.772
2836.7749,98.6927
2837.7390,98.6068
2838.7034,98.5084
2839.6675,98.3896
2840.6318,98.2427
2841.5959,98.0616
2842.5603,97.8431
2843.5244,97.5897
2844.4888,97.3119
2845.4529,97.0308
2846.4172,96.7764
2847.3813,96.5823
2848.3457,96.4749
2849.3098,96.4642
2850.2742,96.5406
2851.2383,96.6779
2852.2026,96.8438
2853.1667,97.0089
2854.1311,97.1539
2855.0952,97.2702
2856.0596,97.3572
2857.0237,97.4185
2857.9880,97.4594
2858.9521,97.4843
2859.9165,97.4966
2860.8806,97.4979
2861.8450,97.4888
2862.8091,97.4704
2863.7734,97.4447
2864.7375,97.4155
2865.7019,97.387
2866.6660,97.3626
2867.6304,97.3437
2868.5945,97.3297
2869.5588,97.3184
2870.5229,97.3068
2871.4873,97.2912
2872.4514,97.2688
2873.4158,97.2382
2874.3799,97.201
2875.3442,97.1606
2876.3083,97.1207
2877.2727,97.0821
2878.2368,97.0422
2879.2012,96.9957
2880.1653,96.9388
2881.1296,96.8718
2882.0938,96.8
2883.0581,96.7315
2884.0222,96.6728
2884.9866,96.6257
2885.9507,96.587
2886.9150,96.5504
2887.8792,96.5104
2888.8435,96.4642
2889.8076,96.4134
2890.7720,96.3619
2891.7361,96.3135
2892.7004,96.2695
2893.6646,96.2272
2894.6289,96.1801
2895.5930,96.1215
2896.5574,96.048
2897.5215,95.963
2898.4858,95.8758
2899.4500,95.7993
2900.4143,95.7435
2901.3784,95.7115
2902.3428,95.6978
2903.3069,95.6912
2904.2712,95.68
2905.2354,95.6559
2906.1997,95.6151
2907.1638,95.5562
2908.1282,95.4786
2909.0923,95.3809
2910.0566,95.2626
2911.0208,95.1266
2911.9851,94.9823
2912.9492,94.8455
2913.9136,94.7357
2914.8777,94.6711
2915.8420,94.6635
2916.8062,94.7151
2917.7705,94.8188
2918.7346,94.9614
2919.6990,95.1284
2920.6631,95.3078
2921.6274,95.4913
2922.5916,95.6739
2923.5559,95.8513
2924.5200,96.0189
2925.4844,96.171
2926.4485,96.3027
2927.4128,96.4112
2928.3770,96.4961
2929.3413,96.5602
2930.3054,96.6082
2931.2698,96.6455
2932.2339,96.6775
2933.1982,96.7084
2934.1624,96.7409
2935.1267,96.7761
2936.0908,96.8134
2937.0552,96.8519
2938.0193,96.8901
2938.9836,96.9274
2939.9478,96.9637
2940.9121,96.9995
2941.8762,97.0363
2942.8406,97.0762
2943.8047,97.1214
2944.7690,97.173
2945.7332,97.2302
2946.6975,97.2895
2947.6616,97.3458
2948.6260,97.3938
2949.5901,97.4305
2950.5544,97.4569
2951.5186,97.4768
2952.4829,97.4958
2953.4470,97.5182
2954.4114,97.5459
2955.3755,97.5782
2956.3398,97.6132
2957.3040,97.6485
2958.2683,97.682
2959.2324,97.7115
2960.1968,97.7345
2961.1609,97.7481
2962.1252,97.7504
2963.0894,97.7409
2964.0537,97.7209
2965.0178,97.6928
2965.9822,97.6594
2966.9463,97.6243
2967.9106,97.5913
2968.8748,97.5652
2969.8391,97.5505
2970.8032,97.5495
2971.7676,97.5611
2972.7317,97.5814
2973.6960,97.6057
2974.6602,97.6315
2975.6245,97.6592
2976.5886,97.6911
2977.5530,97.7285
2978.5171,97.7697
2979.4814,97.8101
2980.4456,97.8445
2981.4099,97.8692
2982.3740,97.8836
2983.3384,97.8888
2984.3025,97.8879
2985.2668,97.8859
2986.2310,97.8906
2987.1953,97.9121
2988.1594,97.9588
2989.1238,98.0327
2990.0879,98.1266
2991.0522,98.2261
2992.0164,98.3159
2992.9807,98.3864
2993.9448,98.4366
2994.9092,98.473
2995.8733,98.5042
2996.8376,98.5372
2997.8018,98.5757
2998.7661,98.6207
2999.7302,98.6725
3000.6946,98.73
3001.6587,98.7906
3002.6230,98.8494
3003.5872,98.9017
3004.5515,98.9458
3005.5156,98.9843
3006.4800,99.0227
3007.4441,99.0662
3008.4084,99.1162
3009.3726,99.1701
3010.3369,99.2233
3011.3010,99.2723
3012.2654,99.3159
3013.2295,99.3548
3014.1938,99.3896
3015.1580,99.4204
3016.1223,99.4469
3017.0864,99.4697
3018.0508,99.4911
3019.0149,99.5135
3019.9792,99.5388
3020.9434,99.5664
3021.9077,99.5947
3022.8718,99.6214
3023.8362,99.6456
3024.8003,99.6676
3025.7646,99.6894
3026.7288,99.713
3027.6931,99.7396
3028.6572,99.7688
3029.6216,99.7977
3030.5857,99.8222
3031.5500,99.8299
3032.5142,99.8265
3033.4785,99.8145
3034.4426,99.7983
3035.4070,99.7832
3036.3711,99.7726
3037.3354,99.7669
3038.2996,99.7642
3039.2639,99.7611
3040.2280,99.7551
3041.1924,99.7457
3042.1565,99.7338
3043.1208,99.7218
3044.0850,99.7117
3045.0493,99.7044
3046.0134,99.699
3046.9778,99.6932
3047.9419,99.6836
3048.9063,99.6681
3049.8704,99.6464
3050.8347,99.6208
3051.7988,99.5946
3052.7632,99.5712
3053.7273,99.5521
3054.6917,99.5373
3055.6558,99.5249
3056.6201,99.5124
3057.5842,99.4975
3058.5486,99.479
3059.5127,99.4568
3060.4771,99.4325
3061.4412,99.409
3062.4055,99.3886
3063.3696,99.3721
3064.3340,99.3579
3065.2981,99.3426
3066.2625,99.3231
3067.2266,99.2985
3068.1909,99.2706
3069.1550,99.2429
3070.1194,99.2184
3071.0835,99.1982
3072.0479,99.1816
3073.0120,99.1669
3073.9763,99.1525
3074.9404,99.1378
3075.9048,99.1225
3076.8689,99.1066
3077.8333,99.0904
3078.7974,99.0743
3079.7617,99.0588
3080.7258,99.0441
3081.6902,99.0292
3082.6543,99.0124
3083.6187,98.9921
3084.5828,98.9683
3085.5471,98.9421
3086.5112,98.916
3087.4756,98.8917
3088.4397,98.8698
3089.4041,98.8501
3090.3682,98.8325
3091.3325,98.8175
3092.2966,98.8061
3093.2610,98.7982
3094.2251,98.7919
3095.1895,98.7842
3096.1536,98.7726
3097.1179,98.7563
3098.0820,98.7367
3099.0464,98.7157
3100.0105,98.694
3100.9749,98.671
3101.9390,98.6459
3102.9033,98.6188
3103.8674,98.5915
3104.8318,98.5665
3105.7959,98.5448
3106.7603,98.5254
3107.7244,98.5059
3108.6887,98.4838
3109.6528,98.459
3110.6172,98.4333
3111.5813,98.4095
3112.5457,98.3898
3113.5098,98.3748
3114.4741,98.3635
3115.4382,98.3545
3116.4026,98.3465
3117.3667,98.3379
3118.3311,98.3265
3119.2952,98.3097
3120.2595,98.2855
3121.2236,98.2537
3122.1880,98.2166
3123.1521,98.1782
3124.1165,98.142
3125.0806,98.1096
3126.0449,98.0808
3127.0090,98.0547
3127.9734,98.0316
3128.9375,98.0134
3129.9019,98.0016
3130.8660,97.9958
3131.8303,97.9919
3132.7944,97.9833
3133.7588,97.9642
3134.7229,97.933
3135.6873,97.8929
3136.6514,97.8504
3137.6157,97.8117
3138.5798,97.7795
3139.5442,97.753
3140.5083,97.7287
3141.4727,97.7033
3142.4368,97.6758
3143.4011,97.6481
3144.3652,97.6234
3145.3296,97.6046
3146.2937,97.592
3147.2581,97.583
3148.2222,97.573
3149.1865,97.5573
3150.1506,97.5332
3151.1150,97.5009
3152.0791,97.4636
3153.0435,97.4258
3154.0076,97.3913
3154.9719,97.3623
3155.9360,97.338
3156.9004,97.3154
3157.8645,97.2903
3158.8289,97.259
3159.7930,97.2208
3160.7573,97.1793
3161.7214,97.1414
3162.6858,97.1142
3163.6499,97.1012
3164.6143,97.1003
3165.5784,97.1036
3166.5427,97.1018
3167.5068,97.0883
3168.4712,97.062
3169.4353,96.9496
3170.3997,96.9111
3171.3638,96.8749
3172.3281,96.844
3173.2922,96.8193
3174.2566,96.8009
3175.2207,96.7879
3176.1851,96.7776
3177.1492,96.7657
3178.1135,96.7477
3179.0776,96.721
3180.0420,96.6867
3181.0061,96.6484
3181.9705,96.6109
3182.9346,96.5772
3183.8989,96.5484
3184.8630,96.5242
3185.8274,96.5035
3186.7915,96.4857
3187.7559,96.4699
3188.7200,96.454
3189.6843,96.4355
3190.6484,96.412
3191.6128,96.3831
3192.5769,96.3509
3193.5413,96.3183
3194.5054,96.2876
3195.4697,96.2594
3196.4338,96.2323
3197.3982,96.2051
3198.3623,96.178
3199.3267,96.1532
3200.2908,96.133
3201.2551,96.1177
3202.2192,96.1043
3203.1836,96.0884
3204.1477,96.0661
3205.1121,96.0369
3206.0762,96.0041
3207.0405,95.9725
3208.0046,95.9461
3208.9690,95.9258
3209.9331,95.9091
3210.8975,95.8926
3211.8616,95.874
3212.8259,95.8533
3213.7900,95.8322
3214.7544,95.8125
3215.7185,95.7949
3216.6829,95.7786
3217.6470,95.7626
3218.6113,95.746
3219.5754,95.7288
3220.5398,95.7112
3221.5039,95.6928
3222.4683,95.6725
3223.4324,95.6492
3224.3967,95.6229
3225.3608,95.5955
3226.3252,95.5701
3227.2893,95.5501
3228.2537,95.5368
3229.2178,95.5293
3230.1821,95.5244
3231.1462,95.5188
3232.1106,95.5096
3233.0747,95.4951
3234.0391,95.4743
3235.0032,95.4467
3235.9675,95.4121
3236.9316,95.3726
3237.8960,95.332
3238.8601,95.2956
3239.8245,95.268
3240.7886,95.251
3241.7529,95.2426
3242.7170,95.2389
3243.6814,95.2348
3244.6455,95.2268
3245.6099,95.2126
3246.5740,95.192
3247.5383,95.1654
3248.5024,95.135
3249.4668,95.1042
3250.4309,95.0778
3251.3953,95.0597
3252.3594,95.0501
3253.3237,95.0444
3254.2878,95.0353
3255.2522,95.0163
3256.2163,94.9859
3257.1807,94.9483
3258.1448,94.9111
3259.1091,94.8815
3260.0732,94.8627
3261.0376,94.8534
3262.0017,94.8487
3262.9661,94.8434
3263.9302,94.8335
3264.8945,94.8182
3265.8586,94.7991
3266.8230,94.7789
3267.7871,94.7606
3268.7515,94.7457
3269.7156,94.7343
3270.6799,94.7256
3271.6440,94.7185
3272.6084,94.7121
3273.5725,94.7063
3274.5369,94.7004
3275.5010,94.6943
3276.4653,94.6879
3277.4294,94.6823
3278.3938,94.6794
3279.3579,94.681
3280.3223,94.6871
3281.2864,94.6952
3282.2507,94.7011
3283.2148,94.7006
3284.1792,94.6917
3285.1433,94.675
3286.1077,94.6534
3287.0718,94.6306
3288.0361,94.61
3289.0002,94.5948
3289.9646,94.5868
3290.9287,94.5861
3291.8931,94.5902
3292.8572,94.5942
3293.8215,94.5929
3294.7856,94.5836
3295.7500,94.5682
3296.7141,94.5525
3297.6785,94.5435
3298.6426,94.5458
3299.6069,94.5588
3300.5710,94.5775
3301.5354,94.5957
3302.4995,94.609
3303.4639,94.6164
3304.4280,94.6203
3305.3923,94.6231
3306.3564,94.6255
3307.3208,94.6266
3308.2849,94.624
3309.2493,94.6172
3310.2134,94.6073
3311.1777,94.5975
3312.1418,94.5905
3313.1062,94.5872
3314.0703,94.586
3315.0347,94.5841
3315.9988,94.5788
3316.9631,94.5692
3317.9272,94.5564
3318.8916,94.5431
3319.8557,94.5315
3320.8201,94.5229
3321.7842,94.5174
3322.7485,94.5147
3323.7126,94.5147
3324.6770,94.5181
3325.6411,94.5255
3326.6055,94.5359
3327.5696,94.5471
3328.5339,94.5558
3329.4980,94.5597
3330.4624,94.5585
3331.4265,94.5538
3332.3909,94.5483
3333.3550,94.5449
3334.3193,94.5451
3335.2834,94.5501
3336.2478,94.5607
3337.2119,94.5773
3338.1763,94.5993
3339.1404,94.6238
3340.1047,94.6463
3341.0688,94.6624
3342.0332,94.6699
3342.9973,94.6695
3343.9617,94.6644
3344.9258,94.6586
3345.8901,94.6552
3346.8542,94.6561
3347.8186,94.6621
3348.7827,94.6733
3349.7471,94.688
3350.7112,94.7027
3351.6755,94.7128
3352.6396,94.7148
3353.6040,94.7092
3354.5681,94.7003
3355.5325,94.6947
3356.4966,94.6972
3357.4609,94.7079
3358.4250,94.7221
3359.3894,94.7342
3360.3535,94.741
3361.3179,94.7439
3362.2820,94.7472
3363.2463,94.755
3364.2104,94.7689
3365.1748,94.7868
3366.1389,94.8053
3367.1033,94.8216
3368.0674,94.8352
3369.0317,94.8472
3369.9958,94.8601
3370.9602,94.8768
3371.9243,94.8996
3372.8887,94.93
3373.8528,94.9663
3374.8171,95.0034
3375.7813,95.0337
3376.7456,95.0499
3377.7097,95.0489
3378.6741,95.0344
3379.6382,95.0154
3380.6025,95.0029
3381.5667,95.004
3382.5310,95.0194
3383.4951,95.0431
3384.4595,95.0655
3385.4236,95.0788
3386.3879,95.0807
3387.3521,95.075
3388.3164,95.0691
3389.2805,95.0695
3390.2449,95.0788
3391.2090,95.0941
3392.1733,95.1085
3393.1375,95.116
3394.1018,95.1145
3395.0659,95.1076
3396.0303,95.1024
3396.9944,95.1058
3397.9587,95.1205
3398.9229,95.1439
3399.8872,95.1697
3400.8513,95.192
3401.8157,95.2082
3402.7798,95.2206
3403.7441,95.2327
3404.7083,95.2468
3405.6726,95.2612
3406.6367,95.2716
3407.6011,95.2749
3408.5652,95.2725
3409.5295,95.2701
3410.4937,95.2746
3411.4580,95.2889
3412.4221,95.31
3413.3865,95.3303
3414.3506,95.3434
3415.3149,95.3483
3416.2791,95.3509
3417.2434,95.3601
3418.2075,95.3816
3419.1719,95.414
3420.1360,95.4486
3421.1003,95.4756
3422.0645,95.49
3423.0288,95.4947
3423.9929,95.4973
3424.9573,95.5058
3425.9214,95.5235
3426.8857,95.5481
3427.8499,95.5727
3428.8142,95.5896
3429.7783,95.595
3430.7427,95.5913
3431.7068,95.5857
3432.6711,95.5865
3433.6353,95.5984
3434.5996,95.6204
3435.5637,95.6472
3436.5281,95.6726
3437.4922,95.6924
3438.4565,95.7057
3439.4207,95.7132
3440.3850,95.7161
3441.3491,95.7159
3442.3135,95.7161
3443.2776,95.723
3444.2419,95.7439
3445.2061,95.7827
3446.1704,95.8351
3447.1345,95.8893
3448.0989,95.9326
3449.0630,95.9587
3450.0273,95.971
3450.9915,95.9785
3451.9558,95.991
3452.9199,96.0124
3453.8843,96.0397
3454.8484,96.0646
3455.8127,96.0807
3456.7769,96.0883
3457.7412,96.0945
3458.7053,96.1088
3459.6697,96.1361
3460.6338,96.1736
3461.5981,96.2126
3462.5623,96.2443
3463.5266,96.2658
3464.4907,96.2812
3465.4551,96.2984
3466.4192,96.3229
3467.3835,96.3539
3468.3477,96.3848
3469.3120,96.4076
3470.2761,96.4184
3471.2405,96.4195
3472.2046,96.4182
3473.1689,96.4226
3474.1331,96.4368
3475.0974,96.4598
3476.0615,96.4875
3477.0259,96.5161
3477.9900,96.5451
3478.9543,96.5757
3479.9185,96.608
3480.8828,96.6387
3481.8469,96.6624
3482.8113,96.6761
3483.7754,96.6824
3484.7397,96.6889
3485.7039,96.7044
3486.6682,96.734
3487.6323,96.7754
3488.5967,96.8195
3489.5608,96.8553
3490.5251,96.8772
3491.4893,96.8874
3492.4536,96.8955
3493.4177,96.9125
3494.3821,96.9438
3495.3462,96.9848
3496.3105,97.024
3497.2747,97.05
3498.2390,97.0599
3499.2031,97.0615
3500.1675,97.0684
3501.1316,97.0909
3502.0959,97.1264
3503.0601,97.1615
3504.0244,97.1827
3504.9885,97.1873
3505.9529,97.1834
3506.9170,97.1854
3507.8813,97.2063
3508.8455,97.2506
3509.8098,97.3098
3510.7739,97.3682
3511.7383,97.4124
3512.7024,97.4378
3513.6667,97.4469
3514.6309,97.4461
3515.5952,97.4412
3516.5593,97.4357
3517.5237,97.4321
3518.4878,97.4331
3519.4521,97.4431
3520.4163,97.4667
3521.3806,97.5049
3522.3447,97.5533
3523.3091,97.6036
3524.2732,97.6497
3525.2375,97.6903
3526.2017,97.7279
3527.1660,97.7629
3528.1301,97.7917
3529.0945,97.8083
3530.0586,97.8109
3531.0229,97.8027
3531.9871,97.792
3532.9514,97.7878
3533.9155,97.7969
3534.8799,97.8196
3535.8440,97.8493
3536.8083,97.8766
3537.7725,97.8959
3538.7368,97.9074
3539.7009,97.915
3540.6653,97.9258
3541.6294,97.9498
3542.5938,97.9977
3543.5579,98.0712
3544.5222,98.1544
3545.4863,98.2195
3546.4507,98.2471
3547.4148,98.2381
3548.3792,98.2082
3549.3433,98.1781
3550.3076,98.1684
3551.2717,98.1928
3552.2361,98.2496
3553.2002,98.3216
3554.1646,98.3872
3555.1287,98.4329
3556.0930,98.458
3557.0571,98.4718
3558.0215,98.4843
3558.9856,98.4953
3559.9500,98.4912
3560.9141,98.4547
3561.8784,98.3827
3562.8425,98.2999
3563.8069,98.2606
3564.7710,98.3215
3565.7354,98.4825
3566.6995,98.6562
3567.6638,98.7503
3568.6279,98.7587
3569.5923,98.7235
3570.5564,98.6712
3571.5208,98.6121
3572.4849,98.5614
3573.4492,98.5405
3574.4133,98.564
3575.3777,98.6296
3576.3418,98.7203
3577.3062,98.8133
3578.2703,98.8865
3579.2346,98.9207
3580.1987,98.901
3581.1631,98.8221
3582.1272,98.6949
3583.0916,98.5541
3584.0557,98.4611
3585.0200,98.4832
3585.9841,98.6365
3586.9485,98.8387
3587.9126,98.972
3588.8770,98.9959
3589.8411,98.9457
3590.8054,98.868
3591.7695,98.8011
3592.7339,98.7775
3593.6980,98.8116
3594.6624,98.8863
3595.6265,98.9675
3596.5908,99.0356
3597.5549,99.0959
3598.5193,99.1625
3599.4834,99.2357
3600.4478,99.2943
3601.4119,99.3098
3602.3762,99.2677
3603.3403,99.1776
3604.3047,99.0715
3605.2688,98.995
3606.2332,98.9846
3607.1973,99.0421
3608.1616,99.1325
3609.1257,99.2168
3610.0901,99.2803
3611.0542,99.3249
3612.0186,99.3485
3612.9829,99.3397
3613.9470,99.2913
3614.9114,99.2179
3615.8755,99.1615
3616.8398,99.1763
3617.8040,99.2896
3618.7683,99.4643
3619.7324,99.6154
3620.6968,99.6804
3621.6609,99.6446
3622.6252,99.5088
3623.5894,99.2796
3624.5537,98.9991
3625.5178,98.7738
3626.4822,98.7528
3627.4463,99.007
3628.4106,99.3875
3629.3748,99.648
3630.3391,99.7238
3631.3032,99.6962
3632.2676,99.6304
3633.2317,99.5546
3634.1960,99.4907
3635.1602,99.4607
3636.1245,99.4764
3637.0886,99.5338
3638.0530,99.6175
3639.0171,99.707
3639.9814,99.7775
3640.9456,99.7994
3641.9099,99.7429
3642.8740,99.5909
3643.8384,99.3595
3644.8025,99.1251
3645.7668,99.0469
3646.7310,99.3282
3647.6953,99.9981
3648.6594,100.638
3649.6238,100.766
3650.5879,100.482
3651.5522,100.105
3652.5164,99.7631
3653.4807,99.4782
3654.4448,99.2798
3655.4092,99.2114
3656.3733,99.2806
3657.3376,99.4373
3658.3018,99.6104
3659.2661,99.7501
3660.2302,99.8404
3661.1946,99.8859
3662.1587,99.8901
3663.1230,99.8424
3664.0872,99.7264
3665.0515,99.5481
3666.0156,99.3611
3666.9800,99.2634
3667.9441,99.3346
3668.9084,99.5287
3669.8726,99.6704
3670.8369,99.6287
3671.8010,99.4382
3672.7654,99.247
3673.7295,99.2231
3674.6938,99.4446
3675.6580,99.8019
3676.6223,100.096
3677.5864,100.244
3678.5508,100.272
3679.5149,100.22
3680.4792,100.113
3681.4434,99.9672
3682.4077,99.7852
3683.3718,99.5621
3684.3362,99.3057
3685.3003,99.0675
3686.2646,98.9585
3687.2288,99.1061
3688.1931,99.5218
3689.1572,99.9984
3690.1216,100.281
3691.0857,100.319
3692.0500,100.213
3693.0142,100.052
3693.9785,99.8721
3694.9426,99.6891
3695.9070,99.5122
3696.8711,99.3566
3697.8354,99.2512
3698.7996,99.2372
3699.7639,99.3485
3700.7280,99.5742
3701.6924,99.839
3702.6565,100.039
3703.6208,100.104
3704.5850,100.021
3705.5493,99.8187
3706.5134,99.5622
3707.4778,99.3561
3708.4419,99.3302
3709.4063,99.5639
3710.3704,99.9707
3711.3347,100.322
3712.2988,100.477
3713.2632,100.466
3714.2273,100.364
3715.1917,100.208
3716.1558,100.022
3717.1201,99.8443
3718.0842,99.7242
3719.0486,99.7009
3720.0127,99.7839
3720.9771,99.952
3721.9412,100.17
3722.9055,100.404
3723.8696,100.612
3724.8340,100.749
3725.7981,100.776
3726.7625,100.682
3727.7266,100.489
3728.6909,100.22
3729.6550,99.9273
3730.6194,99.6994
3731.5835,99.6608
3732.5479,99.9363
3733.5120,100.541
3734.4763,101.257
3735.4404,101.748
3736.4048,101.87
3737.3689,101.716
3738.3333,101.396
3739.2974,100.952
3740.2617,100.427
3741.2258,99.9204
3742.1902,99.5951
3743.1543,99.5731
3744.1187,99.7941
3745.0828,100.043
3746.0471,100.166
3747.0112,100.17
3747.9756,100.165
3748.9397,100.271
3749.9041,100.488
3750.8682,100.638
3751.8325,100.586
3752.7966,100.397
3753.7610,100.171
3754.7251,99.9498
3755.6895,99.7616
3756.6536,99.6529
3757.6179,99.6553
3758.5820,99.7416
3759.5464,99.8395
3760.5105,99.8893
3761.4749,99.8727
3762.4390,99.8025
3763.4033,99.7057
3764.3674,99.6134
3765.3318,99.5517
3766.2959,99.5365
3767.2603,99.5729
3768.2244,99.6544
3769.1887,99.7575
3770.1528,99.8454
3771.1172,99.8829
3772.0813,99.8512
3773.0457,99.7499
3774.0098,99.5967
3774.9741,99.4313
3775.9382,99.3143
3776.9026,99.3038
3777.8667,99.4127
3778.8311,99.588
3779.7952,99.7489
3780.7595,99.8452
3781.7236,99.8735
3782.6880,99.8558
3783.6521,99.8164
3784.6165,99.7717
3785.5806,99.73
3786.5449,99.6949
3787.5090,99.6666
3788.4734,99.6405
3789.4375,99.6072
3790.4019,99.5601
3791.3660,99.5056
3792.3303,99.4664
3793.2944,99.4716
3794.2588,99.5327
3795.2229,99.626
3796.1873,99.7031
3797.1514,99.7287
3798.1157,99.7104
3799.0798,99.688
3800.0442,99.6826
3801.0083,99.6607
3801.9727,99.5723
3802.9368,99.417
3803.9011,99.246
3804.8652,99.1308
3805.8296,99.1348
3806.7937,99.2728
3807.7581,99.4853
3808.7222,99.672
3809.6865,99.7525
3810.6506,99.6978
3811.6150,99.5397
3812.5791,99.3665
3813.5435,99.2856
3814.5076,99.3474
3815.4719,99.4921
3816.4360,99.6049
3817.4004,99.6285
3818.3645,99.5952
3819.3289,99.5694
3820.2930,99.5766
3821.2573,99.5931
3822.2214,99.5955
3823.1858,99.5868
3824.1499,99.5761
3825.1143,99.5702
3826.0784,99.5784
3827.0427,99.6093
3828.0068,99.6616
3828.9712,99.7203
3829.9353,99.7615
3830.8997,99.7599
3831.8638,99.6966
3832.8281,99.568
3833.7922,99.3963
3834.7566,99.2338
3835.7207,99.1483
3836.6851,99.1854
3837.6492,99.3286
3838.6135,99.5059
3839.5776,99.6528
3840.5420,99.756
3841.5061,99.8359
3842.4705,99.9118
3843.4346,99.9831
3844.3989,100.028
3845.3630,100.009
3846.3274,99.8844
3847.2915,99.6226
3848.2559,99.2256
3849.2200,98.7627
3850.1843,98.4047
3851.1484,98.4048
3852.1128,98.8984
3853.0769,99.5916
3854.0413,100.011
3855.0054,100.105
3855.9697,100.048
3856.9338,99.9127
3857.8982,99.7053
3858.8623,99.4515
3859.8267,99.224
3860.7908,99.1175
3861.7551,99.189
3862.7192,99.3964
3863.6836,99.6092
3864.6477,99.7064
3865.6121,99.6578
3866.5762,99.516
3867.5405,99.3694
3868.5046,99.3007
3869.4690,99.3489
3870.4331,99.4877
3871.3975,99.6436
3872.3616,99.7472
3873.3259,99.7656
3874.2900,99.6989
3875.2544,99.5674
3876.2185,99.4082
3877.1829,99.2734
3878.1470,99.2175
3879.1113,99.267
3880.0754,99.3954
3881.0398,99.5352
3882.0039,99.6262
3882.9683,99.6489
3883.9324,99.6149
3884.8967,99.5403
3885.8608,99.4342
3886.8252,99.3079
3887.7893,99.1877
3888.7537,99.1224
3889.7178,99.1719
3890.6821,99.3613
3891.6462,99.629
3892.6106,99.8508
3893.5747,99.9314
3894.5391,99.8512
3895.5032,99.6494
3896.4675,99.3985
3897.4316,99.1839
3898.3960,99.072
3899.3601,99.0823
3900.3245,99.1897
3901.2886,99.3558
3902.2529,99.5452
3903.2170,99.7181
3904.1814,99.8349
3905.1455,99.877
3906.1099,99.8521
3907.0740,99.7801
3908.0383,99.6836
3909.0024,99.5844
3909.9668,99.4991
3910.9309,99.4332
3911.8953,99.3832
3912.8594,99.3465
3913.8237,99.3332
3914.7878,99.3644
3915.7522,99.4541
3916.7163,99.5855
3917.6807,99.7112
3918.6448,99.7831
3919.6091,99.7832
3920.5732,99.7254
3921.5376,99.6419
3922.5017,99.5667
3923.4661,99.5203
3924.4302,99.5005
3925.3945,99.489
3926.3586,99.4691
3927.3230,99.4387
3928.2871,99.4143
3929.2515,99.4235
3930.2156,99.4859
3931.1799,99.5937
3932.1440,99.7114
3933.1084,99.7995
3934.0725,99.8347
3935.0369,99.8118
3936.0010,99.7375
3936.9653,99.6272
3937.9294,99.5046
3938.8938,99.4
3939.8579,99.3421
3940.8223,99.3469
3941.7864,99.4059
3942.7507,99.4894
3943.7148,99.5636
3944.6792,99.6092
3945.6433,99.6277
3946.6077,99.6348
3947.5718,99.6462
3948.5361,99.6648
3949.5002,99.6786
3950.4646,99.6713
3951.4287,99.6357
3952.3931,99.5779
3953.3572,99.5144
3954.3215,99.464
3955.2856,99.4403
3956.2500,99.4472
3957.2141,99.4792
3958.1785,99.5268
3959.1426,99.5808
3960.1069,99.6334
3961.0710,99.6769
3962.0354,99.703
3962.9995,99.7051
3963.9639,99.6817
3964.9280,99.6377
3965.8923,99.5836
3966.8564,99.5326
3967.8208,99.4967
3968.7849,99.4839
3969.7493,99.4959
3970.7134,99.5294
3971.6777,99.5768
3972.6418,99.6277
3973.6062,99.6701
3974.5703,99.694
3975.5347,99.6949
3976.4988,99.6761
3977.4631,99.6474
3978.4272,99.6208
3979.3916,99.6047
3980.3557,99.6011
3981.3201,99.6054
3982.2842,99.6095
3983.2485,99.6067
3984.2126,99.5951
3985.1770,99.578
3986.1411,99.562
3987.1055,99.5538
3988.0696,99.5574
3989.0339,99.5723
3989.9980,99.5934
3990.9624,99.6129
3991.9265,99.6243
3992.8909,99.6248
3993.8550,99.6171
3994.8193,99.6069
3995.7834,99.6
3996.7478,99.5986
3997.7119,99.6014
3998.6763,99.6046
3999.6404,99.6046
4000.6047,99.7607

##### Extended Information
[Comments]
Sample name
Comment
User
Division
Company,HANKYONG

[Detailed Information]
Creation date,4/24/2024 4:04 PM
Date modified,4/24/2024 4:04 PM

Data array type,Linear data array
Horizontal axis,Wavenumber [cm-1]
Vertical axis,%T
Start,649.893 cm-1
End,4000.6 cm-1
Data interval,0.964233 cm-1
Data points,3476    

[Measurement Information]
Model Name,FT/IR-4700typeA
Serial Number,D056761788

Accessory,ATR PRO ONE
Accessory S/N,C174761809
Incident angle,45 deg

Measurement Date,4/24/2024 4:00 PM

Light Source,Standard
Detector,TGS
Accumulation,32
Resolution,4 cm-1
Zero Filling,On
Apodization,Cosine
Gain,Auto (4)
Aperture,Auto (7.1 mm)
Scanning Speed,Auto (2 mm/sec)
Filter,Auto (30000 Hz)

