TITLE,
DATA TYPE,INFRARED SPECTRUM
ORIGIN,JASCO
OWNER,
DATE,24/04/24
TIME,15:36:12
SPECTROMETER/DATA SYSTEM,
LOCALE,1033
RESOLUTION,
DELTAX,0.964233
XUNITS,1/CM
YUNITS,TRANSMITTANCE
FIRSTX,  649.8934
LASTX, 4000.6047
NPOINTS,    3476
FIRSTY,    99.48970
MAXY,   101.89520
MINY,    84.74213
XYDATA
649.8934,99.4897
650.8576,99.5027
651.8218,99.5163
652.7861,99.509
653.7503,99.4584
654.7145,99.3624
655.6788,99.2407
656.6430,99.1227
657.6072,99.0284
658.5715,98.9576
659.5357,98.8963
660.4999,98.8341
661.4642,98.7798
662.4284,98.7603
663.3926,98.8055
664.3569,98.9369
665.3211,99.1631
666.2853,99.4644
667.2496,99.7528
668.2138,99.863
669.1780,99.719
670.1423,99.4732
671.1065,99.3035
672.0707,99.2621
673.0350,99.3238
673.9992,99.4427
674.9634,99.5717
675.9277,99.6758
676.8919,99.7451
677.8561,99.7949
678.8204,99.846
679.7846,99.905
680.7488,99.961
681.7131,99.9976
682.6773,100.009
683.6415,100.005
684.6058,100.006
685.5700,100.025
686.5342,100.063
687.4985,100.104
688.4627,100.125
689.4269,100.113
690.3912,100.068
691.3554,100.004
692.3196,99.943
693.2839,99.896
694.2481,99.8649
695.2123,99.842
696.1766,99.8146
697.1408,99.7721
698.1050,99.7138
699.0693,99.6501
700.0335,99.5962
700.9977,99.5627
701.9620,99.5496
702.9262,99.5472
703.8904,99.5421
704.8547,99.5254
705.8189,99.4972
706.7831,99.4647
707.7474,99.4364
708.7116,99.417
709.6758,99.4056
710.6401,99.3982
711.6043,99.3922
712.5685,99.3875
713.5328,99.386
714.4970,99.3886
715.4612,99.3848
716.4255,99.3917
717.3897,99.3968
718.3539,99.3996
719.3182,99.4009
720.2824,99.4216
721.2466,99.4623
722.2109,99.5061
723.1751,99.5545
724.1393,99.6075
725.1036,99.6624
726.0678,99.713
727.0320,99.7513
727.9963,99.7723
728.9605,99.7784
729.9247,99.7797
730.8890,99.7893
731.8532,99.8159
732.8174,99.8582
733.7817,99.9056
734.7459,99.9439
735.7101,99.9644
736.6744,99.9688
737.6386,99.9683
738.6028,99.9767
739.5671,100.001
740.5313,100.039
741.4955,100.077
742.4598,100.102
743.4240,100.107
744.3882,100.095
745.3525,100.074
746.3167,100.055
747.2809,100.044
748.2452,100.042
749.2094,100.049
750.1736,100.066
751.1379,100.095
752.1021,100.138
753.0663,100.192
754.0306,100.248
754.9948,100.291
755.9590,100.308
756.9233,100.293
757.8875,100.251
758.8517,100.193
759.8160,100.136
760.7802,100.093
761.7444,100.072
762.7087,100.075
763.6729,100.096
764.6371,100.128
765.6014,100.163
766.5656,100.194
767.5298,100.215
768.4941,100.224
769.4583,100.219
770.4225,100.204
771.3868,100.186
772.3510,100.172
773.3152,100.168
774.2795,100.178
775.2437,100.201
776.2079,100.231
777.1722,100.259
778.1364,100.277
779.1006,100.282
780.0649,100.273
781.0291,100.258
781.9933,100.245
782.9576,100.241
783.9218,100.248
784.8860,100.263
785.8503,100.282
786.8145,100.298
787.7787,100.307
788.7430,100.307
789.7072,100.301
790.6714,100.291
791.6357,100.28
792.5999,100.268
793.5641,100.261
794.5284,100.26
795.4926,100.266
796.4568,100.276
797.4211,100.285
798.3853,100.283
799.3495,100.264
800.3138,100.227
801.2780,100.175
802.2422,100.114
803.2065,100.053
804.1707,99.9994
805.1349,99.9596
806.0992,99.9382
807.0634,99.9364
808.0276,99.9512
808.9919,99.9756
809.9561,100
810.9203,100.017
811.8846,100.022
812.8488,100.014
813.8130,99.9976
814.7773,99.9761
815.7415,99.9538
816.7057,99.9335
817.6700,99.9171
818.6342,99.9056
819.5984,99.8995
820.5627,99.8989
821.5269,99.9034
822.4911,99.9126
823.4554,99.925
824.4196,99.9389
825.3839,99.9519
826.3481,99.9618
827.3123,99.9672
828.2766,99.9673
829.2408,99.9613
830.2050,99.9486
831.1693,99.929
832.1335,99.9043
833.0977,99.8782
834.0620,99.856
835.0262,99.8418
835.9904,99.8364
836.9547,99.8368
837.9189,99.8385
838.8831,99.8374
839.8474,99.832
840.8116,99.822
841.7758,99.8077
842.7401,99.7979
843.7043,99.7855
844.6685,99.7706
845.6328,99.756
846.5970,99.7434
847.5612,99.7312
848.5255,99.7145
849.4897,99.6886
850.4539,99.6533
851.4182,99.6148
852.3824,99.5823
853.3466,99.563
854.3109,99.557
855.2751,99.5571
856.2393,99.5534
857.2036,99.5389
858.1678,99.5129
859.1320,99.4805
860.0963,99.4483
861.0605,99.4203
862.0247,99.3964
862.9890,99.3729
863.9532,99.3451
864.9174,99.3103
865.8817,99.2691
866.8459,99.2249
867.8101,99.1817
868.7744,99.1408
869.7386,99.099
870.7028,99.0496
871.6671,98.9864
872.6313,98.9089
873.5955,98.8245
874.5598,98.7457
875.5240,98.6836
876.4882,98.6415
877.4525,98.6137
878.4167,98.5884
879.3809,98.5555
880.3452,98.511
881.3094,98.4577
882.2736,98.4006
883.2379,98.343
884.2021,98.2842
885.1663,98.2216
886.1306,98.1545
887.0948,98.0854
888.0590,98.0186
889.0233,97.9562
889.9875,97.896
890.9517,97.8325
891.9160,97.7615
892.8802,97.6851
893.8444,97.6132
894.8087,97.5597
895.7729,97.536
896.7371,97.5449
897.7014,97.5785
898.6656,97.6229
899.6298,97.6652
900.5941,97.6991
901.5583,97.7261
902.5225,97.7522
903.4868,97.7822
904.4510,97.8168
905.4152,97.8529
906.3795,97.8855
907.3437,97.9104
908.3079,97.9243
909.2722,97.9245
910.2364,97.9092
911.2006,97.8784
912.1649,97.836
913.1291,97.7887
914.0933,97.7436
915.0576,97.7036
916.0218,97.6665
916.9860,97.6263
917.9503,97.5778
918.9145,97.5205
919.8787,97.4593
920.8430,97.401
921.8072,97.3502
922.7714,97.3066
923.7357,97.2653
924.6999,97.2197
925.6641,97.1653
926.6284,97.1011
927.5926,97.0299
928.5568,96.9564
929.5211,96.8859
930.4853,96.8216
931.4495,96.7641
932.4138,96.71
933.3780,96.6535
934.3422,96.5886
935.3065,96.512
936.2707,96.4249
937.2349,96.332
938.1992,96.238
939.1634,96.1451
940.1276,96.0521
941.0919,95.9563
942.0561,95.8566
943.0203,95.7544
943.9846,95.6518
944.9488,95.5488
945.9130,95.4407
946.8773,95.3205
947.8415,95.1831
948.8057,95.0293
949.7700,94.8666
950.7342,94.7055
951.6984,94.5534
952.6627,94.4111
953.6269,94.2729
954.5911,94.1305
955.5554,93.979
956.5196,93.8192
957.4838,93.6573
958.4481,93.5
959.4123,93.3509
960.3765,93.2074
961.3408,93.0631
962.3050,92.9113
963.2692,92.749
964.2335,92.5786
965.1977,92.4065
966.1619,92.2393
967.1262,92.0798
968.0904,91.9257
969.0546,91.7699
970.0189,91.6042
970.9831,91.4223
971.9473,91.2219
972.9116,91.0052
973.8758,90.7762
974.8400,90.5394
975.8043,90.2978
976.7685,90.0528
977.7327,89.8048
978.6970,89.555
979.6612,89.3061
980.6254,89.0622
981.5897,88.8284
982.5539,88.6087
983.5181,88.4055
984.4824,88.2186
985.4466,88.0467
986.4108,87.8889
987.3751,87.7454
988.3393,87.618
989.3035,87.5084
990.2678,87.4171
991.2320,87.3419
992.1962,87.2786
993.1605,87.2218
994.1247,87.1664
995.0889,87.109
996.0532,87.0483
997.0174,86.9849
997.9816,86.9206
998.9459,86.8577
999.9101,86.7969
1000.8743,86.7371
1001.8386,86.675
1002.8028,86.6069
1003.7670,86.5304
1004.7313,86.4461
1005.6955,86.3573
1006.6597,86.2673
1007.6240,86.1771
1008.5882,86.0841
1009.5524,85.9839
1010.5167,85.8728
1011.4809,85.7509
1012.4451,85.6219
1013.4094,85.492
1014.3736,85.3667
1015.3378,85.2497
1016.3021,85.1428
1017.2663,85.0462
1018.2305,84.9592
1019.1948,84.8818
1020.1590,84.8157
1021.1232,84.7663
1022.0875,84.7421
1023.0517,84.7512
1024.0160,84.7949
1024.9802,84.8636
1025.9445,84.9369
1026.9087,84.9924
1027.8729,85.017
1028.8372,85.0167
1029.8014,85.0155
1030.7656,85.0447
1031.7299,85.1295
1032.6941,85.2786
1033.6583,85.4836
1034.6226,85.724
1035.5868,85.9769
1036.5510,86.2245
1037.5153,86.4579
1038.4795,86.6758
1039.4437,86.8809
1040.4080,87.0761
1041.3722,87.2617
1042.3364,87.4357
1043.3007,87.595
1044.2649,87.7382
1045.2291,87.868
1046.1934,87.9912
1047.1576,88.116
1048.1218,88.2484
1049.0861,88.3897
1050.0503,88.5368
1051.0145,88.6865
1051.9788,88.8398
1052.9430,89.003
1053.9072,89.1854
1054.8715,89.3925
1055.8357,89.6206
1056.7999,89.8577
1057.7642,90.0895
1058.7284,90.3096
1059.6926,90.5261
1060.6569,90.7595
1061.6211,91.0318
1062.5853,91.3528
1063.5496,91.7114
1064.5138,92.0764
1065.4780,92.4091
1066.4423,92.6812
1067.4065,92.8888
1068.3707,93.0518
1069.3350,93.201
1070.2992,93.362
1071.2634,93.5454
1072.2277,93.747
1073.1919,93.954
1074.1561,94.1541
1075.1204,94.34
1076.0846,94.5094
1077.0488,94.6614
1078.0131,94.7937
1078.9773,94.9022
1079.9415,94.9843
1080.9058,95.0411
1081.8700,95.079
1082.8342,95.1063
1083.7985,95.1298
1084.7627,95.1509
1085.7269,95.1652
1086.6912,95.1653
1087.6554,95.1461
1088.6196,95.109
1089.5839,95.0631
1090.5481,95.022
1091.5123,94.9985
1092.4766,94.9999
1093.4408,95.0255
1094.4050,95.069
1095.3693,95.1215
1096.3335,95.1749
1097.2977,95.2243
1098.2620,95.2671
1099.2262,95.3021
1100.1904,95.3291
1101.1547,95.3488
1102.1189,95.364
1103.0831,95.3784
1104.0474,95.3963
1105.0116,95.4202
1105.9758,95.45
1106.9401,95.4836
1107.9043,95.5186
1108.8685,95.5539
1109.8328,95.5901
1110.7970,95.6291
1111.7612,95.6729
1112.7255,95.7229
1113.6897,95.78
1114.6539,95.8441
1115.6182,95.9143
1116.5824,95.9877
1117.5466,96.0602
1118.5109,96.1271
1119.4751,96.1857
1120.4393,96.2374
1121.4036,96.288
1122.3678,96.3459
1123.3320,96.4191
1124.2963,96.5111
1125.2605,96.6205
1126.2247,96.7411
1127.1890,96.8661
1128.1532,96.9908
1129.1174,97.1148
1130.0817,97.241
1131.0459,97.3725
1132.0101,97.5093
1132.9744,97.6463
1133.9386,97.7742
1134.9028,97.8832
1135.8671,97.9669
1136.8313,98.0248
1137.7955,98.0613
1138.7598,98.083
1139.7240,98.0949
1140.6882,98.0984
1141.6525,98.0921
1142.6167,98.074
1143.5809,98.0433
1144.5452,98.0016
1145.5094,97.9515
1146.4736,97.895
1147.4379,97.833
1148.4021,97.766
1149.3663,97.6952
1150.3306,97.6239
1151.2948,97.5571
1152.2590,97.5003
1153.2233,97.4578
1154.1875,97.4313
1155.1517,97.4208
1156.1160,97.4248
1157.0802,97.4423
1158.0444,97.4733
1159.0087,97.5191
1159.9729,97.5824
1160.9371,97.6667
1161.9014,97.7754
1162.8656,97.9105
1163.8298,98.072
1164.7941,98.2567
1165.7583,98.4585
1166.7225,98.6696
1167.6868,98.8818
1168.6510,99.0885
1169.6152,99.2852
1170.5795,99.4694
1171.5437,99.6396
1172.5079,99.7948
1173.4722,99.9336
1174.4364,100.055
1175.4006,100.157
1176.3649,100.245
1177.3291,100.316
1178.2933,100.37
1179.2576,100.412
1180.2218,100.443
1181.1860,100.462
1182.1503,100.471
1183.1145,100.467
1184.0787,100.45
1185.0430,100.42
1186.0072,100.381
1186.9714,100.333
1187.9357,100.279
1188.8999,100.218
1189.8641,100.151
1190.8284,100.076
1191.7926,99.992
1192.7568,99.9004
1193.7211,99.8015
1194.6853,99.6962
1195.6495,99.5856
1196.6138,99.471
1197.5780,99.3535
1198.5422,99.2332
1199.5065,99.0769
1200.4707,98.9538
1201.4349,98.8273
1202.3992,98.6991
1203.3634,98.5722
1204.3276,98.4502
1205.2919,98.336
1206.2561,98.2304
1207.2203,98.1321
1208.1846,98.0385
1209.1488,97.9462
1210.1130,97.852
1211.0773,97.7535
1212.0415,97.65
1213.0057,97.5432
1213.9700,97.4367
1214.9342,97.335
1215.8984,97.2414
1216.8627,97.1565
1217.8269,97.0782
1218.7911,97.0034
1219.7554,96.93
1220.7196,96.8576
1221.6838,96.788
1222.6481,96.7233
1223.6123,96.6644
1224.5765,96.6108
1225.5408,96.5603
1226.5050,96.5107
1227.4692,96.4606
1228.4335,96.4105
1229.3977,96.3618
1230.3619,96.3165
1231.3262,96.2754
1232.2904,96.2377
1233.2546,96.2017
1234.2189,96.1669
1235.1831,96.1353
1236.1473,96.1121
1237.1116,96.1029
1238.0758,96.11
1239.0400,96.1297
1240.0043,96.1524
1240.9685,96.1677
1241.9327,96.1703
1242.8970,96.1635
1243.8612,96.1581
1244.8254,96.1663
1245.7897,96.1945
1246.7539,96.2401
1247.7181,96.2932
1248.6824,96.3413
1249.6466,96.3752
1250.6108,96.3914
1251.5751,96.3921
1252.5393,96.3824
1253.5035,96.3679
1254.4678,96.3527
1255.4320,96.3394
1256.3962,96.3291
1257.3605,96.3219
1258.3247,96.3172
1259.2889,96.3146
1260.2532,96.3144
1261.2174,96.317
1262.1816,96.3228
1263.1459,96.3316
1264.1101,96.3425
1265.0743,96.3547
1266.0386,96.369
1267.0028,96.3883
1267.9670,96.4172
1268.9313,96.4601
1269.8955,96.5197
1270.8597,96.5951
1271.8240,96.6824
1272.7882,96.7765
1273.7524,96.8728
1274.7167,96.9692
1275.6809,97.0653
1276.6451,97.1622
1277.6094,97.2603
1278.5736,97.3589
1279.5378,97.4562
1280.5021,97.5498
1281.4663,97.638
1282.4305,97.7203
1283.3948,97.7978
1284.3590,97.8722
1285.3232,97.9446
1286.2875,98.0149
1287.2517,98.0811
1288.2159,98.1401
1289.1802,98.1894
1290.1444,98.2278
1291.1086,98.2562
1292.0729,98.2765
1293.0371,98.2901
1294.0013,98.2979
1294.9656,98.2992
1295.9298,98.293
1296.8940,98.2785
1297.8583,98.2554
1298.8225,98.2241
1299.7867,98.1858
1300.7510,98.1424
1301.7152,98.0964
1302.6794,98.0499
1303.6437,98.0035
1304.6079,97.9564
1305.5721,97.9066
1306.5364,97.8524
1307.5006,97.793
1308.4648,97.7293
1309.4291,97.6632
1310.3933,97.5965
1311.3575,97.5313
1312.3218,97.4694
1313.2860,97.4133
1314.2502,97.3656
1315.2145,97.3286
1316.1787,97.3033
1317.1429,97.2892
1318.1072,97.2846
1319.0714,97.2872
1320.0356,97.2952
1320.9999,97.3073
1321.9641,97.3225
1322.9283,97.3393
1323.8926,97.3559
1324.8568,97.3706
1325.8210,97.3822
1326.7853,97.3912
1327.7495,97.3993
1328.7137,97.4096
1329.6780,97.4249
1330.6422,97.4473
1331.6064,97.4772
1332.5707,97.5133
1333.5349,97.5542
1334.4991,97.6
1335.4634,97.6535
1336.4276,97.7187
1337.3918,97.7966
1338.3561,97.8804
1339.3203,97.9572
1340.2845,98.0175
1341.2488,98.0623
1342.2130,98.0995
1343.1772,98.1358
1344.1415,98.1734
1345.1057,98.2102
1346.0699,98.2417
1347.0342,98.2625
1347.9984,98.2698
1348.9626,98.2644
1349.9269,98.2504
1350.8911,98.2324
1351.8553,98.213
1352.8196,98.1922
1353.7838,98.168
1354.7480,98.1379
1355.7123,98.1009
1356.6765,98.0585
1357.6407,98.0139
1358.6050,97.9716
1359.5692,97.9362
1360.5334,97.91
1361.4977,97.8904
1362.4619,97.8716
1363.4261,97.8529
1364.3904,97.8394
1365.3546,97.8362
1366.3188,97.843
1367.2831,97.8564
1368.2473,97.873
1369.2115,97.8917
1370.1758,97.9164
1371.1400,97.9555
1372.1042,98.0186
1373.0685,98.1086
1374.0327,98.2167
1374.9969,98.3257
1375.9612,98.4239
1376.9254,98.5125
1377.8896,98.6006
1378.8539,98.696
1379.8181,98.7993
1380.7823,98.9035
1381.7466,98.9985
1382.7108,99.0782
1383.6750,99.145
1384.6393,99.208
1385.6035,99.2771
1386.5677,99.3545
1387.5320,99.4353
1388.4962,99.5169
1389.4604,99.6011
1390.4247,99.6889
1391.3889,99.7776
1392.3531,99.8617
1393.3174,99.9306
1394.2816,99.9694
1395.2458,99.9559
1396.2101,99.9076
1397.1743,99.8511
1398.1385,99.8084
1399.1028,99.7863
1400.0670,99.7791
1401.0313,99.7776
1401.9955,99.7752
1402.9597,99.7689
1403.9240,99.7558
1404.8882,99.7306
1405.8524,99.6874
1406.8167,99.6242
1407.7809,99.5426
1408.7451,99.4439
1409.7094,99.3279
1410.6736,99.1958
1411.6378,99.0523
1412.6021,98.9051
1413.5663,98.7593
1414.5305,98.6155
1415.4948,98.4729
1416.4590,98.3329
1417.4232,98.1967
1418.3875,98.0655
1419.3517,97.9496
1420.3159,97.8677
1421.2802,97.8259
1422.2444,97.8117
1423.2086,97.8081
1424.1729,97.8045
1425.1371,97.7993
1426.1013,97.7979
1427.0656,97.8089
1428.0298,97.8393
1428.9940,97.8889
1429.9583,97.947
1430.9225,97.9972
1431.8867,98.0282
1432.8510,98.0406
1433.8152,98.0479
1434.7794,98.0687
1435.7437,98.1112
1436.7079,98.1614
1437.6721,98.2014
1438.6364,98.2289
1439.6006,98.2456
1440.5648,98.246
1441.5291,98.2232
1442.4933,98.1756
1443.4575,98.1081
1444.4218,98.0288
1445.3860,97.9452
1446.3502,97.8633
1447.3145,97.7875
1448.2787,97.7224
1449.2429,97.6724
1450.2072,97.6372
1451.1714,97.6083
1452.1356,97.5743
1453.0999,97.533
1454.0641,97.5039
1455.0283,97.5258
1455.9926,97.6106
1456.9568,97.6777
1457.9210,97.6484
1458.8853,97.5854
1459.8495,97.5599
1460.8137,97.5681
1461.7780,97.5909
1462.7422,97.6318
1463.7064,97.7075
1464.6707,97.8192
1465.6349,97.9427
1466.5991,98.0504
1467.5634,98.1304
1468.5276,98.1874
1469.4918,98.2436
1470.4561,98.3398
1471.4203,98.5154
1472.3845,98.758
1473.3488,98.9844
1474.3130,99.1293
1475.2772,99.211
1476.2415,99.2717
1477.2057,99.3295
1478.1699,99.3838
1479.1342,99.4296
1480.0984,99.4616
1481.0626,99.475
1482.0269,99.466
1482.9911,99.4337
1483.9553,99.3822
1484.9196,99.321
1485.8838,99.2653
1486.8480,99.2306
1487.8123,99.214
1488.7765,99.1781
1489.7407,99.0864
1490.7050,98.9553
1491.6692,98.8233
1492.6334,98.7021
1493.5977,98.5842
1494.5619,98.4654
1495.5261,98.3482
1496.4904,98.229
1497.4546,98.0936
1498.4188,97.9414
1499.3831,97.793
1500.3473,97.6589
1501.3115,97.5259
1502.2758,97.3785
1503.2400,97.2228
1504.2042,97.1015
1505.1685,97.0865
1506.1327,97.1987
1507.0969,97.2884
1508.0612,97.2236
1509.0254,97.1194
1509.9896,97.0767
1510.9539,97.0852
1511.9181,97.1185
1512.8823,97.1744
1513.8466,97.2687
1514.8108,97.4133
1515.7750,97.5974
1516.7393,97.7907
1517.7035,97.9697
1518.6677,98.1408
1519.6320,98.3319
1520.5962,98.5574
1521.5604,98.7929
1522.5247,98.9955
1523.4889,99.1447
1524.4531,99.25
1525.4174,99.331
1526.3816,99.3988
1527.3458,99.4526
1528.3101,99.4865
1529.2743,99.5
1530.2385,99.504
1531.2028,99.519
1532.1670,99.5566
1533.1312,99.6004
1534.0955,99.6154
1535.0597,99.5892
1536.0239,99.5173
1536.9882,99.4345
1537.9524,99.4135
1538.9166,99.5555
1539.8809,99.8843
1540.8451,100.181
1541.8093,100.207
1542.7736,100.061
1543.7378,99.9098
1544.7020,99.8045
1545.6663,99.7357
1546.6305,99.6881
1547.5947,99.6514
1548.5590,99.6199
1549.5232,99.5915
1550.4874,99.5656
1551.4517,99.5398
1552.4159,99.508
1553.3801,99.4631
1554.3444,99.4058
1555.3086,99.3591
1556.2728,99.3783
1557.2371,99.5116
1558.2013,99.661
1559.1655,99.6296
1560.1298,99.4886
1561.0940,99.406
1562.0582,99.3896
1563.0225,99.3844
1563.9867,99.3568
1564.9509,99.3038
1565.9152,99.2413
1566.8794,99.1883
1567.8436,99.1494
1568.8079,99.1082
1569.7721,99.0458
1570.7363,98.9621
1571.7006,98.8677
1572.6648,98.7697
1573.6290,98.6758
1574.5933,98.5951
1575.5575,98.5239
1576.5217,98.4401
1577.4860,98.3373
1578.4502,98.2334
1579.4144,98.1351
1580.3787,98.032
1581.3429,97.9165
1582.3071,97.792
1583.2714,97.6673
1584.2356,97.5485
1585.1998,97.4361
1586.1641,97.3278
1587.1283,97.2238
1588.0925,97.1281
1589.0568,97.0464
1590.0210,96.9815
1590.9852,96.9326
1591.9495,96.8965
1592.9137,96.87
1593.8779,96.8511
1594.8422,96.8383
1595.8064,96.8311
1596.7706,96.83
1597.7349,96.8359
1598.6991,96.8495
1599.6633,96.8705
1600.6276,96.8964
1601.5918,96.924
1602.5560,96.9503
1603.5203,96.974
1604.4845,96.9962
1605.4487,97.0187
1606.4130,97.0431
1607.3772,97.0688
1608.3414,97.0924
1609.3057,97.1087
1610.2699,97.1133
1611.2341,97.1045
1612.1984,97.084
1613.1626,97.0618
1614.1268,97.0583
1615.0911,97.0925
1616.0553,97.156
1617.0195,97.2147
1617.9838,97.2522
1618.9480,97.2778
1619.9122,97.3027
1620.8765,97.3333
1621.8407,97.3745
1622.8049,97.423
1623.7692,97.4639
1624.7334,97.4854
1625.6976,97.4914
1626.6619,97.4946
1627.6261,97.5034
1628.5903,97.5158
1629.5546,97.5207
1630.5188,97.5058
1631.4830,97.4673
1632.4473,97.4207
1633.4115,97.4041
1634.3757,97.4561
1635.3400,97.5584
1636.3042,97.6303
1637.2684,97.6411
1638.2327,97.6326
1639.1969,97.6316
1640.1611,97.6314
1641.1254,97.6172
1642.0896,97.5835
1643.0538,97.5427
1644.0181,97.5273
1644.9823,97.5727
1645.9465,97.6697
1646.9108,97.7464
1647.8750,97.7446
1648.8392,97.6712
1649.8035,97.5632
1650.7677,97.4754
1651.7319,97.4827
1652.6962,97.6054
1653.6604,97.7258
1654.6246,97.7733
1655.5889,97.8102
1656.5531,97.8586
1657.5173,97.8942
1658.4816,97.9054
1659.4458,97.9065
1660.4100,97.9234
1661.3743,97.9682
1662.3385,98.024
1663.3027,98.0646
1664.2670,98.0803
1665.2312,98.0788
1666.1954,98.0788
1667.1597,98.1079
1668.1239,98.1895
1669.0881,98.3133
1670.0524,98.4283
1671.0166,98.4911
1671.9808,98.5033
1672.9451,98.4924
1673.9093,98.485
1674.8735,98.497
1675.8378,98.5307
1676.8020,98.5761
1677.7662,98.6166
1678.7305,98.635
1679.6947,98.6237
1680.6589,98.597
1681.6232,98.5938
1682.5874,98.6502
1683.5516,98.7436
1684.5159,98.8075
1685.4801,98.8343
1686.4443,98.8598
1687.4086,98.8915
1688.3728,98.9127
1689.3370,98.9085
1690.3013,98.8737
1691.2655,98.813
1692.2297,98.7388
1693.1940,98.6702
1694.1582,98.6286
1695.1224,98.6291
1696.0867,98.6665
1697.0509,98.7095
1698.0151,98.7181
1698.9794,98.6798
1699.9436,98.6252
1700.9078,98.598
1701.8721,98.6134
1702.8363,98.6535
1703.8005,98.6884
1704.7648,98.6949
1705.7290,98.6645
1706.6932,98.604
1707.6575,98.5309
1708.6217,98.4595
1709.5859,98.3928
1710.5502,98.3251
1711.5144,98.2524
1712.4786,98.1784
1713.4429,98.1164
1714.4071,98.0831
1715.3713,98.077
1716.3356,98.0545
1717.2998,97.9673
1718.2640,97.8436
1719.2283,97.7482
1720.1925,97.6977
1721.1567,97.6682
1722.1210,97.6336
1723.0852,97.5819
1724.0494,97.5151
1725.0137,97.4433
1725.9779,97.3773
1726.9421,97.3224
1727.9064,97.2758
1728.8706,97.2312
1729.8348,97.1866
1730.7991,97.1516
1731.7633,97.1435
1732.7275,97.1684
1733.6918,97.2096
1734.6560,97.2524
1735.6202,97.3024
1736.5845,97.3635
1737.5487,97.4313
1738.5129,97.5033
1739.4772,97.5816
1740.4414,97.6661
1741.4056,97.7516
1742.3699,97.8329
1743.3341,97.909
1744.2983,97.9813
1745.2626,98.0518
1746.2268,98.1238
1747.1910,98.2029
1748.1553,98.2913
1749.1195,98.3811
1750.0837,98.4603
1751.0480,98.5281
1752.0122,98.5949
1752.9764,98.6689
1753.9407,98.7515
1754.9049,98.8401
1755.8691,98.9298
1756.8334,99.013
1757.7976,99.0836
1758.7618,99.1431
1759.7261,99.2009
1760.6903,99.2657
1761.6545,99.3368
1762.6188,99.4043
1763.5830,99.458
1764.5472,99.4948
1765.5115,99.5193
1766.4757,99.5405
1767.4399,99.5694
1768.4042,99.6166
1769.3684,99.6888
1770.3326,99.7834
1771.2969,99.8814
1772.2611,99.9544
1773.2253,99.9891
1774.1896,99.9972
1775.1538,99.9961
1776.1180,99.9943
1777.0823,99.9951
1778.0465,100.001
1779.0107,100.013
1779.9750,100.027
1780.9392,100.035
1781.9034,100.036
1782.8677,100.034
1783.8319,100.033
1784.7961,100.039
1785.7604,100.044
1786.7246,100.04
1787.6888,100.025
1788.6531,100.005
1789.6173,99.9978
1790.5815,100.021
1791.5458,100.074
1792.5100,100.129
1793.4742,100.163
1794.4385,100.172
1795.4027,100.166
1796.3669,100.155
1797.3312,100.144
1798.2954,100.141
1799.2596,100.151
1800.2239,100.168
1801.1881,100.183
1802.1523,100.19
1803.1166,100.189
1804.0808,100.181
1805.0450,100.169
1806.0093,100.157
1806.9735,100.149
1807.9377,100.151
1808.9020,100.164
1809.8662,100.184
1810.8304,100.202
1811.7947,100.211
1812.7589,100.209
1813.7231,100.199
1814.6874,100.187
1815.6516,100.176
1816.6158,100.17
1817.5801,100.167
1818.5443,100.162
1819.5085,100.154
1820.4728,100.141
1821.4370,100.128
1822.4012,100.118
1823.3655,100.114
1824.3297,100.117
1825.2939,100.123
1826.2582,100.134
1827.2224,100.15
1828.1866,100.172
1829.1509,100.192
1830.1151,100.201
1831.0793,100.196
1832.0436,100.183
1833.0078,100.17
1833.9720,100.163
1834.9363,100.162
1835.9005,100.167
1836.8647,100.17
1837.8290,100.162
1838.7932,100.141
1839.7574,100.107
1840.7217,100.071
1841.6859,100.051
1842.6501,100.06
1843.6144,100.095
1844.5786,100.137
1845.5428,100.165
1846.5071,100.176
1847.4713,100.175
1848.4355,100.168
1849.3998,100.159
1850.3640,100.15
1851.3282,100.143
1852.2925,100.138
1853.2567,100.136
1854.2209,100.134
1855.1852,100.132
1856.1494,100.13
1857.1136,100.127
1858.0779,100.124
1859.0421,100.121
1860.0063,100.119
1860.9706,100.116
1861.9348,100.111
1862.8990,100.103
1863.8633,100.092
1864.8275,100.084
1865.7917,100.09
1866.7560,100.115
1867.7202,100.152
1868.6844,100.181
1869.6487,100.189
1870.6129,100.178
1871.5771,100.16
1872.5414,100.143
1873.5056,100.131
1874.4698,100.124
1875.4341,100.123
1876.3983,100.123
1877.3625,100.123
1878.3268,100.119
1879.2910,100.114
1880.2552,100.111
1881.2195,100.111
1882.1837,100.113
1883.1479,100.114
1884.1122,100.11
1885.0764,100.103
1886.0406,100.096
1887.0049,100.095
1887.9691,100.104
1888.9333,100.118
1889.8976,100.132
1890.8618,100.139
1891.8260,100.139
1892.7903,100.135
1893.7545,100.131
1894.7188,100.129
1895.6830,100.129
1896.6472,100.127
1897.6115,100.124
1898.5757,100.119
1899.5399,100.116
1900.5042,100.115
1901.4684,100.115
1902.4326,100.117
1903.3969,100.117
1904.3611,100.115
1905.3253,100.114
1906.2896,100.115
1907.2538,100.122
1908.2180,100.132
1909.1823,100.142
1910.1465,100.147
1911.1107,100.145
1912.0750,100.135
1913.0392,100.12
1914.0034,100.103
1914.9677,100.089
1915.9319,100.082
1916.8961,100.081
1917.8604,100.086
1918.8246,100.092
1919.7888,100.1
1920.7531,100.111
1921.7173,100.125
1922.6815,100.138
1923.6458,100.146
1924.6100,100.146
1925.5742,100.136
1926.5385,100.121
1927.5027,100.106
1928.4669,100.095
1929.4312,100.088
1930.3954,100.086
1931.3596,100.086
1932.3239,100.087
1933.2881,100.089
1934.2523,100.092
1935.2166,100.093
1936.1808,100.09
1937.1450,100.083
1938.1093,100.073
1939.0735,100.063
1940.0377,100.06
1941.0020,100.067
1941.9662,100.08
1942.9304,100.095
1943.8947,100.103
1944.8589,100.104
1945.8231,100.099
1946.7874,100.091
1947.7516,100.083
1948.7158,100.075
1949.6801,100.066
1950.6443,100.058
1951.6085,100.05
1952.5728,100.044
1953.5370,100.041
1954.5012,100.041
1955.4655,100.042
1956.4297,100.043
1957.3939,100.043
1958.3582,100.043
1959.3224,100.042
1960.2866,100.039
1961.2509,100.033
1962.2151,100.028
1963.1793,100.024
1964.1436,100.025
1965.1078,100.031
1966.0720,100.04
1967.0363,100.045
1968.0005,100.044
1968.9647,100.037
1969.9290,100.026
1970.8932,100.017
1971.8574,100.012
1972.8217,100.01
1973.7859,100.01
1974.7501,100.009
1975.7144,100.006
1976.6786,100.001
1977.6428,99.9967
1978.6071,99.9941
1979.5713,99.993
1980.5355,99.9923
1981.4998,99.9912
1982.4640,99.9898
1983.4282,99.9886
1984.3925,99.9877
1985.3567,99.9865
1986.3209,99.9842
1987.2852,99.9805
1988.2494,99.9767
1989.2136,99.9753
1990.1779,99.9778
1991.1421,99.9834
1992.1063,99.9892
1993.0706,99.9922
1994.0348,99.9911
1994.9990,99.9869
1995.9633,99.9815
1996.9275,99.9771
1997.8917,99.9742
1998.8560,99.9723
1999.8202,99.9699
2000.7844,99.9661
2001.7487,99.9608
2002.7129,99.9548
2003.6771,99.9492
2004.6414,99.9445
2005.6056,99.9407
2006.5698,99.9371
2007.5341,99.9329
2008.4983,99.9273
2009.4625,99.9201
2010.4268,99.9121
2011.3910,99.9046
2012.3552,99.8998
2013.3195,99.8994
2014.2837,99.9037
2015.2479,99.9114
2016.2122,99.9195
2017.1764,99.9242
2018.1406,99.9237
2019.1049,99.9182
2020.0691,99.9102
2021.0333,99.9026
2021.9976,99.8976
2022.9618,99.8954
2023.9260,99.895
2024.8903,99.8944
2025.8545,99.892
2026.8187,99.8871
2027.7830,99.8804
2028.7472,99.8735
2029.7114,99.8679
2030.6757,99.8645
2031.6399,99.8631
2032.6041,99.8627
2033.5684,99.8623
2034.5326,99.8615
2035.4968,99.8605
2036.4611,99.8597
2037.4253,99.8599
2038.3895,99.8611
2039.3538,99.8628
2040.3180,99.8641
2041.2822,99.8638
2042.2465,99.8617
2043.2107,99.8577
2044.1749,99.8528
2045.1392,99.8476
2046.1034,99.843
2047.0676,99.8393
2048.0320,99.8366
2048.9961,99.8346
2049.9604,99.8331
2050.9246,99.832
2051.8889,99.8307
2052.8530,99.8289
2053.8174,99.8263
2054.7815,99.8229
2055.7458,99.819
2056.7100,99.815
2057.6743,99.8112
2058.6384,99.8081
2059.6028,99.8062
2060.5669,99.806
2061.5313,99.8079
2062.4954,99.8117
2063.4597,99.816
2064.4238,99.8185
2065.3882,99.8173
2066.3523,99.8116
2067.3167,99.8026
2068.2808,99.793
2069.2451,99.7856
2070.2092,99.7823
2071.1736,99.7833
2072.1377,99.787
2073.1021,99.791
2074.0662,99.7931
2075.0305,99.7919
2075.9946,99.7872
2076.9590,99.7803
2077.9231,99.7727
2078.8875,99.7662
2079.8516,99.7619
2080.8159,99.76
2081.7800,99.7602
2082.7444,99.7621
2083.7085,99.7651
2084.6729,99.7688
2085.6370,99.7726
2086.6013,99.7755
2087.5654,99.7767
2088.5298,99.7759
2089.4939,99.7736
2090.4583,99.7711
2091.4224,99.7695
2092.3867,99.7691
2093.3508,99.7694
2094.3152,99.769
2095.2793,99.7665
2096.2437,99.7616
2097.2078,99.7548
2098.1721,99.7474
2099.1362,99.7417
2100.1006,99.7395
2101.0647,99.7411
2102.0291,99.746
2102.9932,99.752
2103.9575,99.7563
2104.9216,99.7567
2105.8860,99.7527
2106.8501,99.7459
2107.8145,99.739
2108.7786,99.7346
2109.7429,99.734
2110.7070,99.7364
2111.6714,99.7401
2112.6355,99.7432
2113.5999,99.7441
2114.5640,99.7424
2115.5283,99.7387
2116.4924,99.7341
2117.4568,99.7298
2118.4209,99.7266
2119.3853,99.7246
2120.3494,99.7236
2121.3137,99.7231
2122.2778,99.7225
2123.2422,99.7218
2124.2063,99.7209
2125.1707,99.7199
2126.1348,99.7181
2127.0991,99.7152
2128.0632,99.711
2129.0276,99.7059
2129.9917,99.701
2130.9561,99.6978
2131.9202,99.6972
2132.8845,99.6994
2133.8486,99.7037
2134.8130,99.7085
2135.7771,99.7118
2136.7415,99.7118
2137.7056,99.7078
2138.6699,99.7007
2139.6340,99.6923
2140.5984,99.6846
2141.5625,99.679
2142.5269,99.6752
2143.4910,99.6725
2144.4553,99.6704
2145.4194,99.6694
2146.3838,99.6706
2147.3479,99.6747
2148.3123,99.6809
2149.2764,99.687
2150.2407,99.6904
2151.2048,99.69
2152.1692,99.6862
2153.1333,99.6811
2154.0977,99.6769
2155.0618,99.6749
2156.0261,99.6754
2156.9902,99.6778
2157.9546,99.6814
2158.9187,99.6852
2159.8831,99.6888
2160.8472,99.6916
2161.8115,99.6933
2162.7756,99.6938
2163.7400,99.6935
2164.7041,99.6924
2165.6685,99.6905
2166.6326,99.6875
2167.5969,99.6835
2168.5610,99.6792
2169.5254,99.6756
2170.4895,99.6735
2171.4539,99.6737
2172.4180,99.676
2173.3823,99.6797
2174.3464,99.6842
2175.3108,99.6886
2176.2749,99.692
2177.2393,99.6938
2178.2034,99.6939
2179.1677,99.6926
2180.1318,99.6908
2181.0962,99.6898
2182.0603,99.6901
2183.0247,99.6919
2183.9888,99.6944
2184.9531,99.6966
2185.9172,99.6973
2186.8816,99.6958
2187.8457,99.6923
2188.8101,99.688
2189.7742,99.6843
2190.7385,99.6825
2191.7026,99.6832
2192.6670,99.6854
2193.6311,99.6878
2194.5955,99.6889
2195.5596,99.6885
2196.5239,99.687
2197.4880,99.6856
2198.4524,99.685
2199.4165,99.6856
2200.3809,99.687
2201.3450,99.6889
2202.3093,99.6907
2203.2734,99.6916
2204.2378,99.6907
2205.2019,99.6877
2206.1663,99.6828
2207.1304,99.6776
2208.0947,99.6741
2209.0588,99.6741
2210.0232,99.6776
2210.9873,99.6828
2211.9517,99.6869
2212.9158,99.6874
2213.8801,99.6835
2214.8442,99.6765
2215.8086,99.669
2216.7727,99.6637
2217.7371,99.6621
2218.7012,99.6641
2219.6655,99.6678
2220.6296,99.6708
2221.5940,99.6712
2222.5581,99.6681
2223.5225,99.6627
2224.4866,99.6567
2225.4509,99.6523
2226.4150,99.6503
2227.3794,99.6501
2228.3435,99.6501
2229.3079,99.6492
2230.2720,99.647
2231.2363,99.6445
2232.2004,99.6428
2233.1648,99.6425
2234.1289,99.6429
2235.0933,99.6428
2236.0574,99.641
2237.0217,99.637
2237.9858,99.6316
2238.9502,99.6257
2239.9143,99.6201
2240.8787,99.6148
2241.8428,99.6094
2242.8071,99.6041
2243.7712,99.5994
2244.7356,99.5963
2245.6997,99.5954
2246.6641,99.5965
2247.6282,99.5981
2248.5925,99.5983
2249.5566,99.5955
2250.5210,99.5888
2251.4851,99.5787
2252.4495,99.5664
2253.4136,99.5535
2254.3779,99.5414
2255.3420,99.5314
2256.3064,99.5241
2257.2705,99.5195
2258.2349,99.5168
2259.1990,99.5145
2260.1633,99.5112
2261.1274,99.506
2262.0918,99.4992
2263.0559,99.492
2264.0203,99.4854
2264.9844,99.4801
2265.9487,99.4757
2266.9128,99.4715
2267.8772,99.4664
2268.8413,99.46
2269.8057,99.4525
2270.7698,99.4447
2271.7341,99.4376
2272.6982,99.4326
2273.6626,99.4306
2274.6267,99.4315
2275.5911,99.4346
2276.5552,99.4382
2277.5195,99.4408
2278.4836,99.4418
2279.4480,99.4411
2280.4121,99.4387
2281.3765,99.4339
2282.3406,99.4251
2283.3049,99.4104
2284.2690,99.3889
2285.2334,99.3612
2286.1975,99.3291
2287.1619,99.2945
2288.1260,99.2586
2289.0903,99.2217
2290.0544,99.1837
2291.0188,99.145
2291.9829,99.1064
2292.9473,99.0688
2293.9114,99.0319
2294.8757,98.994
2295.8398,98.9531
2296.8042,98.9081
2297.7683,98.8599
2298.7327,98.8106
2299.6968,98.762
2300.6611,98.7138
2301.6252,98.663
2302.5896,98.6056
2303.5537,98.5384
2304.5181,98.4612
2305.4822,98.377
2306.4465,98.2906
2307.4106,98.2064
2308.3750,98.1272
2309.3391,98.0539
2310.3035,97.9858
2311.2676,97.9219
2312.2319,97.8603
2313.1960,97.7981
2314.1604,97.7317
2315.1245,97.658
2316.0889,97.5769
2317.0530,97.4917
2318.0173,97.409
2318.9814,97.3352
2319.9458,97.2742
2320.9099,97.2258
2321.8743,97.1881
2322.8384,97.1618
2323.8027,97.1506
2324.7668,97.1599
2325.7312,97.1913
2326.6953,97.2406
2327.6597,97.2974
2328.6238,97.3488
2329.5881,97.3845
2330.5522,97.4018
2331.5166,97.4061
2332.4807,97.4073
2333.4451,97.4138
2334.4092,97.4301
2335.3735,97.4571
2336.3376,97.4934
2337.3020,97.5351
2338.2661,97.5766
2339.2305,97.6128
2340.1946,97.6398
2341.1589,97.6515
2342.1230,97.6343
2343.0874,97.5751
2344.0515,97.4874
2345.0159,97.4137
2345.9800,97.3823
2346.9443,97.3783
2347.9084,97.3643
2348.8728,97.3144
2349.8369,97.2332
2350.8013,97.1611
2351.7654,97.1661
2352.7297,97.3156
2353.6938,97.6312
2354.6582,98.0641
2355.6223,98.532
2356.5867,98.9795
2357.5508,99.383
2358.5151,99.7137
2359.4792,99.9269
2360.4436,99.9973
2361.4077,99.9292
2362.3721,99.7472
2363.3362,99.4827
2364.3005,99.165
2365.2646,98.8259
2366.2290,98.4965
2367.1931,98.2003
2368.1575,97.9508
2369.1216,97.755
2370.0859,97.6176
2371.0500,97.5413
2372.0144,97.5259
2372.9785,97.5671
2373.9429,97.6574
2374.9070,97.7868
2375.8713,97.9445
2376.8354,98.1199
2377.7998,98.3037
2378.7639,98.4882
2379.7283,98.6679
2380.6924,98.8387
2381.6567,98.9976
2382.6208,99.142
2383.5852,99.2696
2384.5493,99.3784
2385.5137,99.467
2386.4778,99.5353
2387.4421,99.5844
2388.4063,99.6168
2389.3706,99.6359
2390.3347,99.6459
2391.2991,99.6515
2392.2632,99.6569
2393.2275,99.6658
2394.1917,99.6801
2395.1560,99.6996
2396.1201,99.7215
2397.0845,99.7417
2398.0486,99.7563
2399.0129,99.7632
2399.9771,99.7634
2400.9414,99.7606
2401.9055,99.7593
2402.8699,99.7629
2403.8340,99.7724
2404.7983,99.7863
2405.7625,99.8021
2406.7268,99.8149
2407.6909,99.8205
2408.6553,99.8241
2409.6194,99.8252
2410.5837,99.8236
2411.5479,99.8195
2412.5122,99.8139
2413.4763,99.8089
2414.4407,99.8066
2415.4048,99.8079
2416.3691,99.8122
2417.3333,99.8176
2418.2976,99.8222
2419.2617,99.8247
2420.2261,99.8244
2421.1902,99.8215
2422.1545,99.8161
2423.1187,99.8089
2424.0830,99.8013
2425.0471,99.7954
2426.0115,99.7937
2426.9756,99.7972
2427.9399,99.8049
2428.9041,99.8138
2429.8684,99.8202
2430.8325,99.8219
2431.7969,99.8188
2432.7610,99.8135
2433.7253,99.809
2434.6895,99.8076
2435.6538,99.8096
2436.6179,99.8133
2437.5823,99.8168
2438.5464,99.8185
2439.5107,99.8185
2440.4749,99.818
2441.4392,99.8184
2442.4033,99.8205
2443.3677,99.8241
2444.3318,99.8276
2445.2961,99.8297
2446.2603,99.8297
2447.2246,99.8279
2448.1887,99.826
2449.1531,99.8256
2450.1172,99.8278
2451.0815,99.8318
2452.0457,99.8355
2453.0100,99.8366
2453.9741,99.8339
2454.9385,99.828
2455.9026,99.8215
2456.8669,99.8174
2457.8311,99.8175
2458.7954,99.8215
2459.7595,99.8273
2460.7239,99.8324
2461.6880,99.8351
2462.6523,99.8353
2463.6165,99.8342
2464.5808,99.8335
2465.5449,99.8343
2466.5093,99.8366
2467.4734,99.84
2468.4377,99.8432
2469.4019,99.8454
2470.3662,99.8454
2471.3303,99.8429
2472.2947,99.8377
2473.2588,99.8309
2474.2231,99.8244
2475.1873,99.8203
2476.1516,99.8202
2477.1157,99.824
2478.0801,99.8303
2479.0442,99.8373
2480.0085,99.8435
2480.9727,99.8484
2481.9370,99.8526
2482.9011,99.857
2483.8655,99.8615
2484.8296,99.8654
2485.7939,99.8679
2486.7581,99.8682
2487.7224,99.8666
2488.6865,99.8637
2489.6509,99.8602
2490.6150,99.8568
2491.5793,99.8535
2492.5435,99.8507
2493.5078,99.8487
2494.4719,99.8477
2495.4363,99.8475
2496.4004,99.8477
2497.3647,99.8478
2498.3289,99.848
2499.2932,99.8489
2500.2573,99.8511
2501.2217,99.8546
2502.1858,99.8581
2503.1501,99.8598
2504.1143,99.8583
2505.0786,99.8543
2506.0427,99.85
2507.0071,99.8481
2507.9712,99.8502
2508.9355,99.8556
2509.8997,99.8613
2510.8640,99.864
2511.8281,99.8623
2512.7925,99.8571
2513.7566,99.8514
2514.7209,99.8481
2515.6851,99.8487
2516.6494,99.8527
2517.6135,99.8587
2518.5779,99.8654
2519.5420,99.8724
2520.5063,99.8792
2521.4705,99.8852
2522.4348,99.8886
2523.3989,99.8879
2524.3633,99.8828
2525.3274,99.875
2526.2917,99.8677
2527.2559,99.8647
2528.2202,99.8682
2529.1843,99.878
2530.1487,99.8913
2531.1128,99.9042
2532.0771,99.9126
2533.0413,99.9144
2534.0056,99.9097
2534.9697,99.9011
2535.9341,99.8924
2536.8982,99.8872
2537.8625,99.8871
2538.8267,99.8917
2539.7910,99.899
2540.7551,99.9066
2541.7195,99.9128
2542.6836,99.9171
2543.6479,99.9198
2544.6121,99.9215
2545.5764,99.9227
2546.5405,99.9238
2547.5049,99.9253
2548.4690,99.9274
2549.4333,99.9296
2550.3975,99.9308
2551.3618,99.9302
2552.3259,99.9273
2553.2903,99.9233
2554.2544,99.92
2555.2188,99.9192
2556.1829,99.9216
2557.1472,99.9258
2558.1113,99.9297
2559.0757,99.9318
2560.0398,99.9314
2561.0042,99.9294
2561.9683,99.927
2562.9326,99.9251
2563.8967,99.9244
2564.8611,99.9251
2565.8252,99.9279
2566.7896,99.9329
2567.7537,99.9401
2568.7180,99.9479
2569.6821,99.9546
2570.6465,99.9585
2571.6106,99.9591
2572.5750,99.9573
2573.5391,99.9547
2574.5034,99.9527
2575.4675,99.9523
2576.4319,99.9531
2577.3960,99.9548
2578.3604,99.9568
2579.3245,99.9586
2580.2888,99.9604
2581.2529,99.962
2582.2173,99.9633
2583.1814,99.964
2584.1458,99.9637
2585.1099,99.9621
2586.0742,99.9595
2587.0383,99.9569
2588.0027,99.9554
2588.9668,99.9558
2589.9312,99.9578
2590.8953,99.9598
2591.8596,99.9603
2592.8237,99.9585
2593.7881,99.955
2594.7522,99.9517
2595.7166,99.9507
2596.6807,99.9534
2597.6450,99.9595
2598.6091,99.9675
2599.5735,99.9753
2600.5376,99.981
2601.5020,99.9835
2602.4661,99.9828
2603.4304,99.98
2604.3945,99.9762
2605.3589,99.9724
2606.3230,99.9694
2607.2874,99.9674
2608.2515,99.9663
2609.2158,99.9666
2610.1799,99.9684
2611.1443,99.9715
2612.1084,99.9746
2613.0728,99.9765
2614.0369,99.9757
2615.0012,99.9724
2615.9653,99.9677
2616.9297,99.9633
2617.8938,99.9605
2618.8582,99.9592
2619.8223,99.9586
2620.7866,99.958
2621.7507,99.9573
2622.7151,99.9574
2623.6792,99.9587
2624.6436,99.9607
2625.6077,99.962
2626.5720,99.9611
2627.5361,99.9573
2628.5005,99.9513
2629.4646,99.9449
2630.4290,99.9398
2631.3931,99.9372
2632.3574,99.9371
2633.3215,99.9387
2634.2859,99.9412
2635.2500,99.944
2636.2144,99.9472
2637.1785,99.9512
2638.1428,99.9566
2639.1069,99.9629
2640.0713,99.9687
2641.0354,99.9717
2641.9998,99.9705
2642.9639,99.9649
2643.9282,99.9571
2644.8923,99.9505
2645.8567,99.9479
2646.8208,99.9502
2647.7852,99.9554
2648.7493,99.9605
2649.7136,99.9627
2650.6777,99.9611
2651.6421,99.9569
2652.6062,99.9523
2653.5706,99.9487
2654.5347,99.9465
2655.4990,99.945
2656.4631,99.9437
2657.4275,99.9427
2658.3916,99.9427
2659.3560,99.9442
2660.3201,99.9473
2661.2844,99.9508
2662.2485,99.9531
2663.2129,99.9528
2664.1770,99.9492
2665.1414,99.9427
2666.1055,99.9348
2667.0698,99.9274
2668.0339,99.9222
2668.9983,99.92
2669.9624,99.9201
2670.9268,99.9212
2671.8909,99.9217
2672.8552,99.9208
2673.8193,99.9187
2674.7837,99.9164
2675.7478,99.9148
2676.7122,99.9141
2677.6763,99.9142
2678.6406,99.9146
2679.6047,99.9152
2680.5691,99.916
2681.5332,99.917
2682.4976,99.9172
2683.4617,99.9153
2684.4260,99.9102
2685.3901,99.9022
2686.3545,99.8928
2687.3186,99.8843
2688.2830,99.8789
2689.2471,99.8773
2690.2114,99.8793
2691.1755,99.8834
2692.1399,99.8876
2693.1040,99.8903
2694.0684,99.8905
2695.0325,99.8881
2695.9968,99.8836
2696.9609,99.8784
2697.9253,99.8738
2698.8894,99.8707
2699.8538,99.8692
2700.8179,99.8688
2701.7822,99.8689
2702.7463,99.8693
2703.7107,99.87
2704.6748,99.8708
2705.6392,99.8709
2706.6033,99.8689
2707.5676,99.8641
2708.5317,99.8567
2709.4961,99.8483
2710.4602,99.8408
2711.4246,99.8357
2712.3887,99.8333
2713.3530,99.8329
2714.3171,99.8338
2715.2815,99.8357
2716.2456,99.8385
2717.2100,99.842
2718.1741,99.8454
2719.1384,99.848
2720.1025,99.8491
2721.0669,99.8487
2722.0310,99.8467
2722.9954,99.8427
2723.9595,99.8362
2724.9238,99.8269
2725.8879,99.816
2726.8523,99.8056
2727.8164,99.7984
2728.7808,99.7956
2729.7449,99.7969
2730.7092,99.8002
2731.6733,99.8036
2732.6377,99.8061
2733.6018,99.8078
2734.5662,99.8091
2735.5303,99.8095
2736.4946,99.808
2737.4587,99.8041
2738.4231,99.7983
2739.3872,99.7927
2740.3516,99.79
2741.3157,99.7918
2742.2800,99.798
2743.2441,99.8068
2744.2085,99.8156
2745.1726,99.8223
2746.1370,99.8258
2747.1011,99.8263
2748.0654,99.8242
2749.0295,99.8204
2749.9939,99.816
2750.9580,99.8119
2751.9224,99.8091
2752.8865,99.8077
2753.8508,99.8069
2754.8149,99.8055
2755.7793,99.8026
2756.7434,99.7986
2757.7078,99.795
2758.6719,99.7934
2759.6362,99.795
2760.6003,99.7989
2761.5647,99.8033
2762.5288,99.8062
2763.4932,99.8068
2764.4573,99.8059
2765.4216,99.805
2766.3857,99.805
2767.3501,99.8057
2768.3142,99.8054
2769.2786,99.8025
2770.2427,99.7962
2771.2070,99.7871
2772.1711,99.7769
2773.1355,99.7677
2774.0996,99.761
2775.0640,99.7578
2776.0281,99.7576
2776.9924,99.7596
2777.9565,99.7618
2778.9209,99.7629
2779.8850,99.7617
2780.8494,99.7584
2781.8135,99.7542
2782.7778,99.7506
2783.7419,99.7488
2784.7063,99.7493
2785.6704,99.7517
2786.6348,99.7546
2787.5989,99.7561
2788.5632,99.7545
2789.5273,99.7483
2790.4917,99.738
2791.4558,99.7253
2792.4202,99.7138
2793.3843,99.7067
2794.3486,99.7061
2795.3127,99.7114
2796.2771,99.7194
2797.2412,99.726
2798.2056,99.7277
2799.1697,99.7235
2800.1340,99.7147
2801.0981,99.7039
2802.0625,99.6934
2803.0266,99.6845
2803.9910,99.6771
2804.9551,99.6708
2805.9194,99.6652
2806.8835,99.6598
2807.8479,99.6538
2808.8120,99.6464
2809.7764,99.6367
2810.7405,99.6248
2811.7048,99.6111
2812.6689,99.5892
2813.6333,99.5704
2814.5974,99.5543
2815.5618,99.539
2816.5259,99.522
2817.4902,99.5021
2818.4543,99.4803
2819.4187,99.4583
2820.3828,99.4378
2821.3472,99.4185
2822.3113,99.3987
2823.2756,99.3766
2824.2397,99.3508
2825.2041,99.3215
2826.1682,99.2892
2827.1326,99.2544
2828.0967,99.2175
2829.0610,99.1794
2830.0251,99.142
2830.9895,99.1075
2831.9536,99.0775
2832.9180,99.0519
2833.8821,99.0296
2834.8464,99.0089
2835.8105,98.9895
2836.7749,98.9722
2837.7390,98.9582
2838.7034,98.9484
2839.6675,98.9425
2840.6318,98.9399
2841.5959,98.9407
2842.5603,98.9462
2843.5244,98.959
2844.4888,98.9818
2845.4529,99.0164
2846.4172,99.0623
2847.3813,99.1168
2848.3457,99.1746
2849.3098,99.2291
2850.2742,99.2739
2851.2383,99.3043
2852.2026,99.3184
2853.1667,99.317
2854.1311,99.3026
2855.0952,99.278
2856.0596,99.246
2857.0237,99.2099
2857.9880,99.1729
2858.9521,99.1385
2859.9165,99.109
2860.8806,99.0847
2861.8450,99.0639
2862.8091,99.0442
2863.7734,99.0242
2864.7375,99.0043
2865.7019,98.9863
2866.6660,98.9724
2867.6304,98.9631
2868.5945,98.9573
2869.5588,98.9522
2870.5229,98.9446
2871.4873,98.9325
2872.4514,98.9158
2873.4158,98.8965
2874.3799,98.8782
2875.3442,98.8649
2876.3083,98.8599
2877.2727,98.8645
2878.2368,98.8778
2879.2012,98.8964
2880.1653,98.9161
2881.1296,98.9328
2882.0938,98.9438
2883.0581,98.9489
2884.0222,98.9496
2884.9866,98.9483
2885.9507,98.9478
2886.9150,98.9496
2887.8792,98.9551
2888.8435,98.9643
2889.8076,98.9767
2890.7720,98.9899
2891.7361,99.0011
2892.7004,99.0076
2893.6646,99.0104
2894.6289,99.0152
2895.5930,99.0314
2896.5574,99.0667
2897.5215,99.1219
2898.4858,99.1878
2899.4500,99.2476
2900.4143,99.2844
2901.3784,99.2895
2902.3428,99.2662
2903.3069,99.2275
2904.2712,99.1886
2905.2354,99.161
2906.1997,99.1498
2907.1638,99.1549
2908.1282,99.1736
2909.0923,99.2024
2910.0566,99.237
2911.0208,99.2728
2911.9851,99.3058
2912.9492,99.3349
2913.9136,99.3622
2914.8777,99.3917
2915.8420,99.4264
2916.8062,99.4657
2917.7705,99.5047
2918.7346,99.5372
2919.6990,99.5583
2920.6631,99.5665
2921.6274,99.5638
2922.5916,99.5535
2923.5559,99.538
2924.5200,99.5179
2925.4844,99.4915
2926.4485,99.4564
2927.4128,99.4107
2928.3770,99.3542
2929.3413,99.2894
2930.3054,99.2208
2931.2698,99.1535
2932.2339,99.0921
2933.1982,99.0393
2934.1624,98.9956
2935.1267,98.9606
2936.0908,98.9329
2937.0552,98.9118
2938.0193,98.8965
2938.9836,98.8862
2939.9478,98.8798
2940.9121,98.8766
2941.8762,98.8768
2942.8406,98.8816
2943.8047,98.8931
2944.7690,98.9132
2945.7332,98.943
2946.6975,98.9818
2947.6616,99.0275
2948.6260,99.0774
2949.5901,99.129
2950.5544,99.1806
2951.5186,99.2321
2952.4829,99.2839
2953.4470,99.3368
2954.4114,99.3911
2955.3755,99.4462
2956.3398,99.5006
2957.3040,99.5523
2958.2683,99.5992
2959.2324,99.6396
2960.1968,99.6731
2961.1609,99.7004
2962.1252,99.7231
2963.0894,99.7429
2964.0537,99.7607
2965.0178,99.776
2965.9822,99.788
2966.9463,99.7962
2967.9106,99.8021
2968.8748,99.8078
2969.8391,99.8151
2970.8032,99.8231
2971.7676,99.8288
2972.7317,99.8283
2973.6960,99.82
2974.6602,99.8067
2975.6245,99.7941
2976.5886,99.7881
2977.5530,99.7913
2978.5171,99.8015
2979.4814,99.814
2980.4456,99.8259
2981.4099,99.8408
2982.3740,99.8596
2983.3384,99.8885
2984.3025,99.93
2985.2668,99.9797
2986.2310,100.025
2987.1953,100.051
2988.1594,100.044
2989.1238,100.002
2990.0879,99.9318
2991.0522,99.8502
2992.0164,99.7739
2992.9807,99.7138
2993.9448,99.6714
2994.9092,99.6404
2995.8733,99.6107
2996.8376,99.5749
2997.8018,99.5313
2998.7661,99.4838
2999.7302,99.4384
3000.6946,99.3983
3001.6587,99.3624
3002.6230,99.3251
3003.5872,99.2803
3004.5515,99.2248
3005.5156,99.1609
3006.4800,99.0948
3007.4441,99.0337
3008.4084,98.9822
3009.3726,98.9402
3010.3369,98.9039
3011.3010,98.868
3012.2654,98.8283
3013.2295,98.783
3014.1938,98.7329
3015.1580,98.6798
3016.1223,98.6256
3017.0864,98.5722
3018.0508,98.5217
3019.0149,98.4759
3019.9792,98.4356
3020.9434,98.3996
3021.9077,98.3652
3022.8718,98.3293
3023.8362,98.2906
3024.8003,98.2503
3025.7646,98.2123
3026.7288,98.1806
3027.6931,98.1573
3028.6572,98.1409
3029.6216,98.1264
3030.5857,98.1079
3031.5500,98.0808
3032.5142,98.0448
3033.4785,98.0036
3034.4426,97.9632
3035.4070,97.929
3036.3711,97.9032
3037.3354,97.8842
3038.2996,97.8677
3039.2639,97.8489
3040.2280,97.8246
3041.1924,97.7948
3042.1565,97.7625
3043.1208,97.7314
3044.0850,97.7049
3045.0493,97.6847
3046.0134,97.6709
3046.9778,97.6617
3047.9419,97.6553
3048.9063,97.6495
3049.8704,97.6427
3050.8347,97.634
3051.7988,97.6229
3052.7632,97.6096
3053.7273,97.5943
3054.6917,97.5775
3055.6558,97.56
3056.6201,97.5427
3057.5842,97.5271
3058.5486,97.5141
3059.5127,97.5044
3060.4771,97.4976
3061.4412,97.4928
3062.4055,97.4883
3063.3696,97.4825
3064.3340,97.4742
3065.2981,97.4625
3066.2625,97.4476
3067.2266,97.4298
3068.1909,97.4099
3069.1550,97.389
3070.1194,97.3684
3071.0835,97.3496
3072.0479,97.334
3073.0120,97.3228
3073.9763,97.3167
3074.9404,97.3152
3075.9048,97.3164
3076.8689,97.3176
3077.8333,97.3159
3078.7974,97.3096
3079.7617,97.2988
3080.7258,97.2856
3081.6902,97.2723
3082.6543,97.2605
3083.6187,97.2501
3084.5828,97.2395
3085.5471,97.227
3086.5112,97.211
3087.4756,97.1915
3088.4397,97.1698
3089.4041,97.1483
3090.3682,97.1298
3091.3325,97.1172
3092.2966,97.1115
3093.2610,97.1117
3094.2251,97.1147
3095.1895,97.1163
3096.1536,97.1137
3097.1179,97.1064
3098.0820,97.0964
3099.0464,97.0857
3100.0105,97.0748
3100.9749,97.0623
3101.9390,97.0462
3102.9033,97.0259
3103.8674,97.0038
3104.8318,96.9834
3105.7959,96.9678
3106.7603,96.957
3107.7244,96.9482
3108.6887,96.9376
3109.6528,96.9232
3110.6172,96.9058
3111.5813,96.8886
3112.5457,96.8749
3113.5098,96.8664
3114.4741,96.8621
3115.4382,96.8598
3116.4026,96.8574
3117.3667,96.8532
3118.3311,96.8459
3119.2952,96.8342
3120.2595,96.8164
3121.2236,96.7916
3122.1880,96.7608
3123.1521,96.7275
3124.1165,96.696
3125.0806,96.6698
3126.0449,96.6501
3127.0090,96.6363
3127.9734,96.6273
3128.9375,96.6223
3129.9019,96.6216
3130.8660,96.6241
3131.8303,96.6265
3132.7944,96.6232
3133.7588,96.609
3134.7229,96.5819
3135.6873,96.5449
3136.6514,96.5052
3137.6157,96.4704
3138.5798,96.4455
3139.5442,96.4311
3140.5083,96.4237
3141.4727,96.4183
3142.4368,96.4109
3143.4011,96.4002
3144.3652,96.3864
3145.3296,96.3713
3146.2937,96.3558
3147.2581,96.3404
3148.2222,96.3246
3149.1865,96.3078
3150.1506,96.2897
3151.1150,96.2704
3152.0791,96.2503
3153.0435,96.2301
3154.0076,96.211
3154.9719,96.1937
3155.9360,96.1778
3156.9004,96.1616
3157.8645,96.1417
3158.8289,96.1154
3159.7930,96.0822
3160.7573,96.0463
3161.7214,96.0149
3162.6858,95.9956
3163.6499,95.9911
3164.6143,95.998
3165.5784,96.0072
3166.5427,96.0092
3167.5068,95.9988
3168.4712,95.9769
3169.4353,95.8707
3170.3997,95.8431
3171.3638,95.8199
3172.3281,95.8014
3173.2922,95.7863
3174.2566,95.7737
3175.2207,95.7627
3176.1851,95.7518
3177.1492,95.7382
3178.1135,95.7192
3179.0776,95.6941
3180.0420,95.6657
3181.0061,95.6384
3181.9705,95.6158
3182.9346,95.5985
3183.8989,95.5844
3184.8630,95.5711
3185.8274,95.5582
3186.7915,95.5474
3187.7559,95.5399
3188.7200,95.5335
3189.6843,95.523
3190.6484,95.5029
3191.6128,95.4711
3192.5769,95.4315
3193.5413,95.3915
3194.5054,95.3584
3195.4697,95.335
3196.4338,95.3189
3197.3982,95.3054
3198.3623,95.2912
3199.3267,95.2767
3200.2908,95.2648
3201.2551,95.2574
3202.2192,95.253
3203.1836,95.2464
3204.1477,95.2322
3205.1121,95.2079
3206.0762,95.1759
3207.0405,95.1422
3208.0046,95.1132
3208.9690,95.0924
3209.9331,95.0793
3210.8975,95.0707
3211.8616,95.0633
3212.8259,95.0549
3213.7900,95.0455
3214.7544,95.0359
3215.7185,95.0262
3216.6829,95.016
3217.6470,95.0043
3218.6113,94.9903
3219.5754,94.9738
3220.5398,94.9548
3221.5039,94.9335
3222.4683,94.91
3223.4324,94.8852
3224.3967,94.8613
3225.3608,94.8411
3226.3252,94.8277
3227.2893,94.822
3228.2537,94.8222
3229.2178,94.824
3230.1821,94.8229
3231.1462,94.8158
3232.1106,94.8021
3233.0747,94.7826
3234.0391,94.7584
3235.0032,94.7296
3235.9675,94.6964
3236.9316,94.6601
3237.8960,94.6244
3238.8601,94.5943
3239.8245,94.5734
3240.7886,94.5625
3241.7529,94.558
3242.7170,94.5544
3243.6814,94.5469
3244.6455,94.5337
3245.6099,94.5165
3246.5740,94.4988
3247.5383,94.4829
3248.5024,94.4686
3249.4668,94.454
3250.4309,94.4378
3251.3953,94.42
3252.3594,94.4022
3253.3237,94.3857
3254.2878,94.3707
3255.2522,94.3556
3256.2163,94.3385
3257.1807,94.3185
3258.1448,94.2966
3259.1091,94.275
3260.0732,94.2559
3261.0376,94.2401
3262.0017,94.2267
3262.9661,94.214
3263.9302,94.2002
3264.8945,94.1843
3265.8586,94.1666
3266.8230,94.1482
3267.7871,94.1309
3268.7515,94.1164
3269.7156,94.1055
3270.6799,94.0973
3271.6440,94.0891
3272.6084,94.0777
3273.5725,94.0607
3274.5369,94.0388
3275.5010,94.0162
3276.4653,93.9984
3277.4294,93.9893
3278.3938,93.9891
3279.3579,93.9937
3280.3223,93.998
3281.2864,93.9986
3282.2507,93.996
3283.2148,93.993
3284.1792,93.9923
3285.1433,93.993
3286.1077,93.9911
3287.0718,93.9818
3288.0361,93.9639
3289.0002,93.9412
3289.9646,93.9205
3290.9287,93.9077
3291.8931,93.9032
3292.8572,93.9019
3293.8215,93.8967
3294.7856,93.8835
3295.7500,93.8639
3296.7141,93.8451
3297.6785,93.8346
3298.6426,93.8365
3299.6069,93.8486
3300.5710,93.864
3301.5354,93.8754
3302.4995,93.8786
3303.4639,93.8742
3304.4280,93.8664
3305.3923,93.8594
3306.3564,93.8549
3307.3208,93.8519
3308.2849,93.8479
3309.2493,93.8414
3310.2134,93.8334
3311.1777,93.8253
3312.1418,93.818
3313.1062,93.8099
3314.0703,93.7986
3315.0347,93.7825
3315.9988,93.7631
3316.9631,93.7446
3317.9272,93.7318
3318.8916,93.7277
3319.8557,93.7317
3320.8201,93.7407
3321.7842,93.7502
3322.7485,93.7562
3323.7126,93.7569
3324.6770,93.752
3325.6411,93.7433
3326.6055,93.7336
3327.5696,93.7257
3328.5339,93.7213
3329.4980,93.7202
3330.4624,93.7199
3331.4265,93.7175
3332.3909,93.7119
3333.3550,93.7046
3334.3193,93.6993
3335.2834,93.7003
3336.2478,93.7094
3337.2119,93.725
3338.1763,93.743
3339.1404,93.7583
3340.1047,93.7672
3341.0688,93.7687
3342.0332,93.7642
3342.9973,93.757
3343.9617,93.7501
3344.9258,93.746
3345.8901,93.7462
3346.8542,93.7508
3347.8186,93.7596
3348.7827,93.771
3349.7471,93.782
3350.7112,93.7891
3351.6755,93.7889
3352.6396,93.7811
3353.6040,93.7687
3354.5681,93.7581
3355.5325,93.7552
3356.4966,93.7626
3357.4609,93.7772
3358.4250,93.7924
3359.3894,93.8014
3360.3535,93.8015
3361.3179,93.7953
3362.2820,93.7886
3363.2463,93.787
3364.2104,93.7931
3365.1748,93.806
3366.1389,93.8228
3367.1033,93.8409
3368.0674,93.8591
3369.0317,93.8773
3369.9958,93.8958
3370.9602,93.9142
3371.9243,93.9317
3372.8887,93.9475
3373.8528,93.9611
3374.8171,93.9716
3375.7813,93.9782
3376.7456,93.9802
3377.7097,93.9775
3378.6741,93.9711
3379.6382,93.9637
3380.6025,93.9589
3381.5667,93.9603
3382.5310,93.9696
3383.4951,93.9855
3384.4595,94.0037
3385.4236,94.0186
3386.3879,94.0263
3387.3521,94.0268
3388.3164,94.0247
3389.2805,94.0263
3390.2449,94.0358
3391.2090,94.0518
3392.1733,94.0675
3393.1375,94.075
3394.1018,94.0701
3395.0659,94.0555
3396.0303,94.039
3396.9944,94.029
3397.9587,94.0298
3398.9229,94.0404
3399.8872,94.0562
3400.8513,94.0726
3401.8157,94.0878
3402.7798,94.1026
3403.7441,94.1185
3404.7083,94.1347
3405.6726,94.1485
3406.6367,94.1564
3407.6011,94.1567
3408.5652,94.1509
3409.5295,94.1436
3410.4937,94.1404
3411.4580,94.1449
3412.4221,94.1578
3413.3865,94.1765
3414.3506,94.1971
3415.3149,94.2166
3416.2791,94.2345
3417.2434,94.2517
3418.2075,94.2691
3419.1719,94.2858
3420.1360,94.2994
3421.1003,94.3084
3422.0645,94.3137
3423.0288,94.3198
3423.9929,94.3318
3424.9573,94.3527
3425.9214,94.3814
3426.8857,94.4124
3427.8499,94.4375
3428.8142,94.4501
3429.7783,94.4494
3430.7427,94.4416
3431.7068,94.4367
3432.6711,94.4431
3433.6353,94.4634
3434.5996,94.4923
3435.5637,94.521
3436.5281,94.5414
3437.4922,94.5502
3438.4565,94.5486
3439.4207,94.5396
3440.3850,94.526
3441.3491,94.5112
3442.3135,94.5007
3443.2776,94.5041
3444.2419,94.5307
3445.2061,94.5837
3446.1704,94.654
3447.1345,94.7222
3448.0989,94.7695
3449.0630,94.7885
3450.0273,94.7862
3450.9915,94.7786
3451.9558,94.7808
3452.9199,94.7996
3453.8843,94.8309
3454.8484,94.8636
3455.8127,94.8879
3456.7769,94.9016
3457.7412,94.9112
3458.7053,94.9258
3459.6697,94.9509
3460.6338,94.9844
3461.5981,95.0188
3462.5623,95.0473
3463.5266,95.0686
3464.4907,95.0878
3465.4551,95.1117
3466.4192,95.1431
3467.3835,95.178
3468.3477,95.2071
3469.3120,95.2225
3470.2761,95.2226
3471.2405,95.2137
3472.2046,95.2064
3473.1689,95.2095
3474.1331,95.2262
3475.0974,95.2532
3476.0615,95.2851
3477.0259,95.3186
3477.9900,95.3535
3478.9543,95.3915
3479.9185,95.4313
3480.8828,95.4681
3481.8469,95.4959
3482.8113,95.5128
3483.7754,95.5227
3484.7397,95.5331
3485.7039,95.5509
3486.6682,95.5788
3487.6323,95.6139
3488.5967,95.6495
3489.5608,95.6796
3490.5251,95.7028
3491.4893,95.7226
3492.4536,95.7458
3493.4177,95.7778
3494.3821,95.818
3495.3462,95.8582
3496.3105,95.8868
3497.2747,95.8972
3498.2390,95.8931
3499.2031,95.8885
3500.1675,95.9016
3501.1316,95.9428
3502.0959,96.0047
3503.0601,96.0649
3504.0244,96.1017
3504.9885,96.1087
3505.9529,96.0961
3506.9170,96.0835
3507.8813,96.0895
3508.8455,96.1223
3509.8098,96.1749
3510.7739,96.2309
3511.7383,96.2756
3512.7024,96.3038
3513.6667,96.3184
3514.6309,96.3263
3515.5952,96.3335
3516.5593,96.3431
3517.5237,96.3559
3518.4878,96.3725
3519.4521,96.3944
3520.4163,96.423
3521.3806,96.457
3522.3447,96.493
3523.3091,96.5281
3524.2732,96.5642
3525.2375,96.6078
3526.2017,96.6638
3527.1660,96.728
3528.1301,96.787
3529.0945,96.8256
3530.0586,96.8374
3531.0229,96.8273
3531.9871,96.8086
3532.9514,96.796
3533.9155,96.7996
3534.8799,96.8209
3535.8440,96.8527
3536.8083,96.884
3537.7725,96.9077
3538.7368,96.9224
3539.7009,96.9312
3540.6653,96.9409
3541.6294,96.9625
3542.5938,97.0082
3543.5579,97.0823
3544.5222,97.1717
3545.4863,97.2499
3546.4507,97.2963
3547.4148,97.3087
3548.3792,97.2987
3549.3433,97.2837
3550.3076,97.2826
3551.2717,97.3096
3552.2361,97.3657
3553.2002,97.4371
3554.1646,97.5045
3555.1287,97.5547
3556.0930,97.5867
3557.0571,97.6103
3558.0215,97.6368
3558.9856,97.6671
3559.9500,97.6856
3560.9141,97.6699
3561.8784,97.6103
3562.8425,97.528
3563.8069,97.4788
3564.7710,97.5271
3565.7354,97.6835
3566.6995,97.8673
3567.6638,97.9807
3568.6279,98.006
3569.5923,97.9789
3570.5564,97.9268
3571.5208,97.8649
3572.4849,97.8124
3573.4492,97.7917
3574.4133,97.8154
3575.3777,97.8785
3576.3418,97.9635
3577.3062,98.0516
3578.2703,98.1266
3579.2346,98.1726
3580.1987,98.1725
3581.1631,98.1132
3582.1272,97.9969
3583.0916,97.8533
3584.0557,97.7447
3585.0200,97.7457
3585.9841,97.8837
3586.9485,98.0868
3587.9126,98.2366
3588.8770,98.2824
3589.8411,98.2499
3590.8054,98.1828
3591.7695,98.1205
3592.7339,98.0991
3593.6980,98.1361
3594.6624,98.2159
3595.6265,98.304
3596.5908,98.3796
3597.5549,98.4457
3598.5193,98.5145
3599.4834,98.5843
3600.4478,98.634
3601.4119,98.6371
3602.3762,98.5828
3603.3403,98.4839
3604.3047,98.3743
3605.2688,98.2989
3606.2332,98.292
3607.1973,98.3519
3608.1616,98.4415
3609.1257,98.5233
3610.0901,98.5868
3611.0542,98.6377
3612.0186,98.6743
3612.9829,98.6817
3613.9470,98.6468
3614.9114,98.5793
3615.8755,98.5208
3616.8398,98.5292
3617.8040,98.6393
3618.7683,98.8207
3619.7324,98.9897
3620.6968,99.0779
3621.6609,99.063
3622.6252,98.9412
3623.5894,98.7183
3624.5537,98.4379
3625.5178,98.2099
3626.4822,98.1883
3627.4463,98.4499
3628.4106,98.8489
3629.3748,99.136
3630.3391,99.2398
3631.3032,99.2393
3632.2676,99.2006
3633.2317,99.1533
3634.1960,99.1195
3635.1602,99.1189
3636.1245,99.1596
3637.0886,99.2347
3638.0530,99.3286
3639.0171,99.4227
3639.9814,99.4958
3640.9456,99.5221
3641.9099,99.4746
3642.8740,99.3384
3643.8384,99.1329
3644.8025,98.94
3645.7668,98.9283
3646.7310,99.3093
3647.6953,100.102
3648.6594,100.837
3649.6238,100.988
3650.5879,100.672
3651.5522,100.253
3652.5164,99.89
3653.4807,99.6156
3654.4448,99.4624
3655.4092,99.4667
3656.3733,99.616
3657.3376,99.8356
3658.3018,100.04
3659.2661,100.184
3660.2302,100.262
3661.1946,100.293
3662.1587,100.287
3663.1230,100.236
3664.0872,100.122
3665.0515,99.9463
3666.0156,99.762
3666.9800,99.667
3667.9441,99.7417
3668.9084,99.9412
3669.8726,100.092
3670.8369,100.067
3671.8010,99.9042
3672.7654,99.7491
3673.7295,99.7579
3674.6938,99.9843
3675.6580,100.297
3676.6223,100.508
3677.5864,100.568
3678.5508,100.534
3679.5149,100.452
3680.4792,100.341
3681.4434,100.204
3682.4077,100.034
3683.3718,99.8179
3684.3362,99.5652
3685.3003,99.3351
3686.2646,99.2416
3687.2288,99.4176
3688.1931,99.8694
3689.1572,100.371
3690.1216,100.649
3691.0857,100.655
3692.0500,100.505
3693.0142,100.296
3693.9785,100.075
3694.9426,99.8592
3695.9070,99.6586
3696.8711,99.4864
3697.8354,99.3658
3698.7996,99.3303
3699.7639,99.4064
3700.7280,99.5809
3701.6924,99.785
3702.6565,99.9277
3703.6208,99.9497
3704.5850,99.8408
3705.5493,99.6278
3706.5134,99.3714
3707.4778,99.172
3708.4419,99.1552
3709.4063,99.3944
3710.3704,99.7975
3711.3347,100.138
3712.2988,100.282
3713.2632,100.272
3714.2273,100.181
3715.1917,100.043
3716.1558,99.8779
3717.1201,99.7177
3718.0842,99.6079
3719.0486,99.5871
3720.0127,99.6668
3720.9771,99.8295
3721.9412,100.043
3722.9055,100.271
3723.8696,100.472
3724.8340,100.599
3725.7981,100.616
3726.7625,100.516
3727.7266,100.315
3728.6909,100.047
3729.6550,99.7661
3730.6194,99.563
3731.5835,99.5633
3732.5479,99.8891
3733.5120,100.544
3734.4763,101.293
3735.4404,101.787
3736.4048,101.895
3737.3689,101.726
3738.3333,101.396
3739.2974,100.944
3740.2617,100.405
3741.2258,99.8722
3742.1902,99.5088
3743.1543,99.4495
3744.1187,99.6589
3745.0828,99.9391
3746.0471,100.129
3747.0112,100.215
3747.9756,100.287
3748.9397,100.448
3749.9041,100.679
3750.8682,100.798
3751.8325,100.685
3752.7966,100.431
3753.7610,100.151
3754.7251,99.8898
3755.6895,99.6748
3756.6536,99.5537
3757.6179,99.5567
3758.5820,99.6507
3759.5464,99.754
3760.5105,99.8007
3761.4749,99.7743
3762.4390,99.6946
3763.4033,99.5976
3764.3674,99.5196
3765.3318,99.4854
3766.2959,99.5017
3767.2603,99.5606
3768.2244,99.6455
3769.1887,99.7335
3770.1528,99.7977
3771.1172,99.8157
3772.0813,99.7754
3773.0457,99.676
3774.0098,99.5313
3774.9741,99.378
3775.9382,99.2757
3776.9026,99.2818
3777.8667,99.4065
3778.8311,99.5905
3779.7952,99.7468
3780.7595,99.8251
3781.7236,99.8283
3782.6880,99.788
3783.6521,99.737
3784.6165,99.6948
3785.5806,99.6655
3786.5449,99.6438
3787.5090,99.6224
3788.4734,99.5945
3789.4375,99.5547
3790.4019,99.5032
3791.3660,99.4514
3792.3303,99.4237
3793.2944,99.4454
3794.2588,99.5209
3795.2229,99.6199
3796.1873,99.6917
3797.1514,99.7057
3798.1157,99.679
3799.0798,99.6605
3800.0442,99.6735
3801.0083,99.6765
3801.9727,99.6067
3802.9368,99.4562
3803.9011,99.2782
3804.8652,99.1503
3805.8296,99.1404
3806.7937,99.2651
3807.7581,99.4651
3808.7222,99.6402
3809.6865,99.7106
3810.6506,99.6479
3811.6150,99.4847
3812.5791,99.3106
3813.5435,99.2348
3814.5076,99.3091
3815.4719,99.4728
3816.4360,99.6064
3817.4004,99.6451
3818.3645,99.6156
3819.3289,99.581
3820.2930,99.5738
3821.2573,99.5819
3822.2214,99.5899
3823.1858,99.5975
3824.1499,99.6045
3825.1143,99.6083
3826.0784,99.6135
3827.0427,99.6301
3828.0068,99.6631
3828.9712,99.706
3829.9353,99.7413
3830.8997,99.7459
3831.8638,99.6975
3832.8281,99.586
3833.7922,99.4254
3834.7566,99.2604
3835.7207,99.1551
3836.6851,99.1598
3837.6492,99.2727
3838.6135,99.4407
3839.5776,99.6074
3840.5420,99.7497
3841.5061,99.8689
3842.4705,99.9677
3843.4346,100.04
3844.3989,100.068
3845.3630,100.026
3846.3274,99.882
3847.2915,99.6098
3848.2559,99.2104
3849.2200,98.7496
3850.1843,98.3951
3851.1484,98.4001
3852.1128,98.9051
3853.0769,99.6202
3854.0413,100.067
3855.0054,100.181
3855.9697,100.134
3856.9338,100.001
3857.8982,99.7904
3858.8623,99.5313
3859.8267,99.2977
3860.7908,99.1847
3861.7551,99.2492
3862.7192,99.449
3863.6836,99.6542
3864.6477,99.745
3865.6121,99.6915
3866.5762,99.5457
3867.5405,99.3955
3868.5046,99.3234
3869.4690,99.3691
3870.4331,99.5067
3871.3975,99.6625
3872.3616,99.7661
3873.3259,99.7837
3874.2900,99.7161
3875.2544,99.5852
3876.2185,99.4298
3877.1829,99.3033
3878.1470,99.2595
3879.1113,99.3235
3880.0754,99.4657
3881.0398,99.6157
3882.0039,99.7121
3882.9683,99.7353
3883.9324,99.6977
3884.8967,99.6158
3885.8608,99.5002
3886.8252,99.3641
3887.7893,99.2345
3888.7537,99.16
3889.7178,99.1995
3890.6821,99.3771
3891.6462,99.6323
3892.6106,99.8443
3893.5747,99.9209
3894.5391,99.844
3895.5032,99.652
3896.4675,99.4165
3897.4316,99.2208
3898.3960,99.1286
3899.3601,99.1544
3900.3245,99.2672
3901.2886,99.4236
3902.2529,99.5883
3903.2170,99.7291
3904.1814,99.8185
3905.1455,99.8483
3906.1099,99.8285
3907.0740,99.7746
3908.0383,99.7004
3909.0024,99.6197
3909.9668,99.5432
3910.9309,99.4751
3911.8953,99.415
3912.8594,99.3661
3913.8237,99.3433
3914.7878,99.3687
3915.7522,99.4539
3916.7163,99.5788
3917.6807,99.6958
3918.6448,99.7613
3919.6091,99.763
3920.5732,99.7177
3921.5376,99.6555
3922.5017,99.6051
3923.4661,99.5799
3924.4302,99.5723
3925.3945,99.5629
3926.3586,99.5374
3927.3230,99.4977
3928.2871,99.4632
3929.2515,99.4641
3930.2156,99.5219
3931.1799,99.6295
3932.1440,99.7501
3933.1084,99.8403
3934.0725,99.8728
3935.0369,99.8413
3936.0010,99.7542
3936.9653,99.6311
3937.9294,99.5003
3938.8938,99.3947
3939.8579,99.344
3940.8223,99.361
3941.7864,99.4322
3942.7507,99.5227
3943.7148,99.5956
3944.6792,99.6327
3945.6433,99.6396
3946.6077,99.6377
3947.5718,99.6478
3948.5361,99.6751
3949.5002,99.7054
3950.4646,99.7168
3951.4287,99.6961
3952.3931,99.6459
3953.3572,99.5809
3954.3215,99.5207
3955.2856,99.4813
3956.2500,99.4712
3957.2141,99.4915
3958.1785,99.5387
3959.1426,99.6066
3960.1069,99.6843
3961.0710,99.7554
3962.0354,99.8013
3962.9995,99.8096
3963.9639,99.78
3964.9280,99.7244
3965.8923,99.6607
3966.8564,99.6053
3967.8208,99.5683
3968.7849,99.5527
3969.7493,99.5572
3970.7134,99.5796
3971.6777,99.6175
3972.6418,99.666
3973.6062,99.7162
3974.5703,99.7557
3975.5347,99.7745
3976.4988,99.77
3977.4631,99.7485
3978.4272,99.7212
3979.3916,99.6979
3980.3557,99.6827
3981.3201,99.6729
3982.2842,99.6623
3983.2485,99.6466
3984.2126,99.6267
3985.1770,99.6089
3986.1411,99.6013
3987.1055,99.6095
3988.0696,99.6332
3989.0339,99.6656
3989.9980,99.6961
3990.9624,99.7149
3991.9265,99.7178
3992.8909,99.7075
3993.8550,99.6921
3994.8193,99.6797
3995.7834,99.6751
3996.7478,99.6774
3997.7119,99.6828
3998.6763,99.6868
3999.6404,99.6865
4000.6047,99.8423

##### Extended Information
[Comments]
Sample name
Comment
User
Division
Company,HANKYONG

[Detailed Information]
Creation date,4/24/2024 3:36 PM

Data array type,Linear data array
Horizontal axis,Wavenumber [cm-1]
Vertical axis,%T
Start,649.893 cm-1
End,4000.6 cm-1
Data interval,0.964233 cm-1
Data points,3476    

[Measurement Information]
Model Name,FT/IR-4700typeA
Serial Number,D056761788

Accessory,ATR PRO ONE
Accessory S/N,C174761809
Incident angle,45 deg

Measurement Date,4/24/2024 3:35 PM

Light Source,Standard
Detector,TGS
Accumulation,32
Resolution,4 cm-1
Zero Filling,On
Apodization,Cosine
Gain,Auto (4)
Aperture,Auto (7.1 mm)
Scanning Speed,Auto (2 mm/sec)
Filter,Auto (30000 Hz)

