TITLE,
DATA TYPE,INFRARED SPECTRUM
ORIGIN,JASCO
OWNER,
DATE,24/04/24
TIME,10:30:05
SPECTROMETER/DATA SYSTEM,
LOCALE,1033
RESOLUTION,
DELTAX,0.964233
XUNITS,1/CM
YUNITS,TRANSMITTANCE
FIRSTX,  649.8934
LASTX, 4000.6047
NPOINTS,    3476
FIRSTY,    99.33797
MAXY,   100.98321
MINY,    53.11549
XYDATA
649.8934,99.338
650.8576,99.3004
651.8218,99.3427
652.7861,99.4492
653.7503,99.5656
654.7145,99.6327
655.6788,99.6113
656.6430,99.4973
657.6072,99.3196
658.5715,99.1235
659.5357,98.9508
660.4999,98.8237
661.4642,98.7368
662.4284,98.6624
663.3926,98.5631
664.3569,98.4008
665.3211,98.137
666.2853,97.7401
667.2496,97.2297
668.2138,96.7485
669.1780,96.4903
670.1423,96.4686
671.1065,96.5395
672.0707,96.5913
673.0350,96.5911
673.9992,96.5511
674.9634,96.5026
675.9277,96.4801
676.8919,96.5094
677.8561,96.6022
678.8204,96.7608
679.7846,96.9832
680.7488,97.2605
681.7131,97.5735
682.6773,97.8958
683.6415,98.2058
684.6058,98.4964
685.5700,98.7717
686.5342,99.0325
687.4985,99.2642
688.4627,99.4366
689.4269,99.5176
690.3912,99.4943
691.3554,99.3955
692.3196,99.3076
693.2839,99.3476
694.2481,99.5742
695.2123,99.9264
696.1766,100.286
697.1408,100.564
698.1050,100.729
699.0693,100.789
700.0335,100.779
700.9977,100.734
701.9620,100.684
702.9262,100.647
703.8904,100.63
704.8547,100.637
705.8189,100.664
706.7831,100.695
707.7474,100.711
708.7116,100.696
709.6758,100.648
710.6401,100.58
711.6043,100.511
712.5685,100.453
713.5328,100.403
714.4970,100.345
715.4612,100.471
716.4255,100.328
717.3897,100.155
718.3539,99.977
719.3182,99.8271
720.2824,99.7294
721.2466,99.6886
722.2109,99.6881
723.1751,99.7007
724.1393,99.6963
725.1036,99.664
726.0678,99.6152
727.0320,99.5665
727.9963,99.5375
728.9605,99.5408
729.9247,99.5757
730.8890,99.6283
731.8532,99.679
732.8174,99.7116
733.7817,99.7184
734.7459,99.7002
735.7101,99.6601
736.6744,99.5981
737.6386,99.5102
738.6028,99.3936
739.5671,99.2522
740.5313,99.0985
741.4955,98.9501
742.4598,98.8215
743.4240,98.718
744.3882,98.6341
745.3525,98.5575
746.3167,98.4749
747.2809,98.378
748.2452,98.2661
749.2094,98.1465
750.1736,98.0307
751.1379,97.9294
752.1021,97.8463
753.0663,97.7759
754.0306,97.7055
754.9948,97.6226
755.9590,97.5204
756.9233,97.4005
757.8875,97.2689
758.8517,97.1302
759.8160,96.9851
760.7802,96.8332
761.7444,96.6779
762.7087,96.5296
763.6729,96.402
764.6371,96.3051
765.6014,96.2393
766.5656,96.1948
767.5298,96.1557
768.4941,96.1069
769.4583,96.0374
770.4225,95.9413
771.3868,95.8167
772.3510,95.6654
773.3152,95.493
774.2795,95.3078
775.2437,95.1194
776.2079,94.9354
777.1722,94.7593
778.1364,94.5918
779.1006,94.4328
780.0649,94.2827
781.0291,94.1426
781.9933,94.0119
782.9576,93.8876
783.9218,93.7643
784.8860,93.637
785.8503,93.5022
786.8145,93.3593
787.7787,93.2084
788.7430,93.0494
789.7072,92.882
790.6714,92.7063
791.6357,92.5257
792.5999,92.3462
793.5641,92.1754
794.5284,92.0184
795.4926,91.8743
796.4568,91.7356
797.4211,91.5903
798.3853,91.4266
799.3495,91.2378
800.3138,91.0246
801.2780,90.7933
802.2422,90.5523
803.2065,90.3084
804.1707,90.0648
805.1349,89.8218
806.0992,89.5783
807.0634,89.3323
808.0276,89.081
808.9919,88.8197
809.9561,88.5428
810.9203,88.2465
811.8846,87.932
812.8488,87.6086
813.8130,87.2925
814.7773,87.0024
815.7415,86.7531
816.7057,86.5503
817.6700,86.3893
818.6342,86.2587
819.5984,86.1468
820.5627,86.0466
821.5269,85.9565
822.4911,85.8772
823.4554,85.8076
824.4196,85.7432
825.3839,85.6775
826.3481,85.6054
827.3123,85.5247
828.2766,85.434
829.2408,85.3289
830.2050,85.1995
831.1693,85.032
832.1335,84.8134
833.0977,84.5368
834.0620,84.2034
835.0262,83.8214
835.9904,83.4024
836.9547,82.9585
837.9189,82.501
838.8831,82.0392
839.8474,81.5808
840.8116,81.1305
841.7758,80.6913
842.7401,80.2662
843.7043,79.8607
844.6685,79.4837
845.6328,79.146
846.5970,78.8561
847.5612,78.618
848.5255,78.4303
849.4897,78.2884
850.4539,78.1878
851.4182,78.125
852.3824,78.097
853.3466,78.0985
854.3109,78.1203
855.2751,78.1505
856.2393,78.1765
857.2036,78.1891
858.1678,78.185
859.1320,78.1683
860.0963,78.1492
861.0605,78.1426
862.0247,78.1645
862.9890,78.2291
863.9532,78.3458
864.9174,78.517
865.8817,78.7367
866.8459,78.9917
867.8101,79.2641
868.7744,79.5368
869.7386,79.7989
870.7028,80.0486
871.6671,80.2922
872.6313,80.5381
873.5955,80.7905
874.5598,81.0453
875.5240,81.2912
876.4882,81.5145
877.4525,81.7042
878.4167,81.8546
879.3809,81.963
880.3452,82.0282
881.3094,82.0495
882.2736,82.0294
883.2379,81.9762
884.2021,81.9052
885.1663,81.8345
886.1306,81.7793
887.0948,81.7478
888.0590,81.7398
889.0233,81.75
889.9875,81.7722
890.9517,81.802
891.9160,81.8369
892.8802,81.875
893.8444,81.9138
894.8087,81.9504
895.7729,81.9814
896.7371,82.0043
897.7014,82.018
898.6656,82.0237
899.6298,82.0247
900.5941,82.0258
901.5583,82.0315
902.5225,82.043
903.4868,82.0564
904.4510,82.0632
905.4152,82.0528
906.3795,82.0171
907.3437,81.9541
908.3079,81.8694
909.2722,81.775
910.2364,81.6856
911.2006,81.615
912.1649,81.5717
913.1291,81.5577
914.0933,81.5688
915.0576,81.5972
916.0218,81.6351
916.9860,81.6781
917.9503,81.7273
918.9145,81.7888
919.8787,81.8716
920.8430,81.9844
921.8072,82.1339
922.7714,82.3233
923.7357,82.5528
924.6999,82.8214
925.6641,83.1283
926.6284,83.4755
927.5926,83.8694
928.5568,84.3226
929.5211,84.8533
930.4853,85.4851
931.4495,86.2423
932.4138,87.1446
933.3780,88.1994
934.3422,89.3958
935.3065,90.7017
936.2707,92.0667
937.2349,93.4299
938.1992,94.7316
939.1634,95.9232
940.1276,96.974
941.0919,97.8712
942.0561,98.6166
943.0203,99.2194
943.9846,99.6912
944.9488,100.056
945.9130,100.344
946.8773,100.533
947.8415,100.634
948.8057,100.661
949.7700,100.628
950.7342,100.547
951.6984,100.435
952.6627,100.3
953.6269,100.15
954.5911,99.983
955.5554,99.7933
956.5196,99.57
957.4838,99.3042
958.4481,98.9923
959.4123,98.6368
960.3765,98.2437
961.3408,97.8186
962.3050,97.3643
963.2692,96.8808
964.2335,96.369
965.1977,95.8339
966.1619,95.2862
967.1262,94.7407
968.0904,94.2125
969.0546,93.7146
970.0189,93.2548
970.9831,92.8365
971.9473,92.4591
972.9116,92.1198
973.8758,91.8145
974.8400,91.5383
975.8043,91.286
976.7685,91.0504
977.7327,90.8222
978.6970,90.5898
979.6612,90.3406
980.6254,90.0631
981.5897,89.749
982.5539,89.3938
983.5181,88.997
984.4824,88.5615
985.4466,88.0949
986.4108,87.6099
987.3751,87.1258
988.3393,86.6663
989.3035,86.2563
990.2678,85.9163
991.2320,85.6581
992.1962,85.4838
993.1605,85.3874
994.1247,85.3582
995.0889,85.3852
996.0532,85.4584
997.0174,85.5685
997.9816,85.7043
998.9459,85.8504
999.9101,85.9873
1000.8743,86.0927
1001.8386,86.1448
1002.8028,86.1245
1003.7670,86.0155
1004.7313,85.8037
1005.6955,85.4753
1006.6597,85.0175
1007.6240,84.4196
1008.5882,83.676
1009.5524,82.7878
1010.5167,81.763
1011.4809,80.6147
1012.4451,79.3591
1013.4094,78.0126
1014.3736,76.5908
1015.3378,75.1083
1016.3021,73.5798
1017.2663,72.0225
1018.2305,70.4562
1019.1948,68.9
1020.1590,67.3681
1021.1232,65.8653
1022.0875,64.3885
1023.0517,62.9347
1024.0160,61.5108
1024.9802,60.1412
1025.9445,58.8641
1026.9087,57.7187
1027.8729,56.7296
1028.8372,55.8971
1029.8014,55.2008
1030.7656,54.6123
1031.7299,54.1115
1032.6941,53.6959
1033.6583,53.3792
1034.6226,53.1813
1035.5868,53.1155
1036.5510,53.181
1037.5153,53.3614
1038.4795,53.6303
1039.4437,53.9594
1040.4080,54.3254
1041.3722,54.7151
1042.3364,55.1253
1043.3007,55.5604
1044.2649,56.0278
1045.2291,56.534
1046.1934,57.0819
1047.1576,57.6714
1048.1218,58.3
1049.0861,58.9654
1050.0503,59.6644
1051.0145,60.3926
1051.9788,61.1423
1052.9430,61.904
1053.9072,62.6696
1054.8715,63.4384
1055.8357,64.2186
1056.7999,65.0236
1057.7642,65.8591
1058.7284,66.7088
1059.6926,67.5281
1060.6569,68.2537
1061.6211,68.8285
1062.5853,69.2309
1063.5496,69.4896
1064.5138,69.6742
1065.4780,69.8624
1066.4423,70.1012
1067.4065,70.3845
1068.3707,70.6596
1069.3350,70.856
1070.2992,70.9207
1071.2634,70.8374
1072.2277,70.6234
1073.1919,70.3109
1074.1561,69.9269
1075.1204,69.4843
1076.0846,68.9861
1077.0488,68.436
1078.0131,67.8454
1078.9773,67.2343
1079.9415,66.6261
1080.9058,66.0414
1081.8700,65.4951
1082.8342,64.9957
1083.7985,64.5485
1084.7627,64.1581
1085.7269,63.8326
1086.6912,63.5847
1087.6554,63.4305
1088.6196,63.3835
1089.5839,63.4464
1090.5481,63.6047
1091.5123,63.8274
1092.4766,64.0753
1093.4408,64.3139
1094.4050,64.5242
1095.3693,64.7055
1096.3335,64.8692
1097.2977,65.0291
1098.2620,65.1915
1099.2262,65.3528
1100.1904,65.5025
1101.1547,65.6291
1102.1189,65.7257
1103.0831,65.7928
1104.0474,65.8386
1105.0116,65.8772
1105.9758,65.9271
1106.9401,66.0088
1107.9043,66.1429
1108.8685,66.3482
1109.8328,66.6407
1110.7970,67.034
1111.7612,67.5389
1112.7255,68.1636
1113.6897,68.913
1114.6539,69.7876
1115.6182,70.7846
1116.5824,71.8987
1117.5466,73.1238
1118.5109,74.4528
1119.4751,75.8756
1120.4393,77.3777
1121.4036,78.9397
1122.3678,80.5391
1123.3320,82.1539
1124.2963,83.7649
1125.2605,85.3557
1126.2247,86.9106
1127.1890,88.4138
1128.1532,89.8488
1129.1174,91.2009
1130.0817,92.4596
1131.0459,93.6202
1132.0101,94.6823
1132.9744,95.6474
1133.9386,96.5162
1134.9028,97.2882
1135.8671,97.9619
1136.8313,98.536
1137.7955,99.0109
1138.7598,99.3891
1139.7240,99.6745
1140.6882,99.8728
1141.6525,99.9899
1142.6167,100.033
1143.5809,100.01
1144.5452,99.9337
1145.5094,99.8177
1146.4736,99.6806
1147.4379,99.5411
1148.4021,99.415
1149.3663,99.3119
1150.3306,99.2347
1151.2948,99.1812
1152.2590,99.1471
1153.2233,99.1293
1154.1875,99.1203
1155.1517,99.089
1156.1160,99.0694
1157.0802,99.0567
1158.0444,99.0428
1159.0087,99.0174
1159.9729,98.9695
1160.9371,98.8891
1161.9014,98.7685
1162.8656,98.6035
1163.8298,98.3934
1164.7941,98.1396
1165.7583,97.845
1166.7225,97.5131
1167.6868,97.149
1168.6510,96.7597
1169.6152,96.3536
1170.5795,95.9387
1171.5437,95.5188
1172.5079,95.092
1173.4722,94.6504
1174.4364,94.1835
1175.4006,93.6831
1176.3649,93.1467
1177.3291,92.5787
1178.2933,91.9882
1179.2576,91.3863
1180.2218,90.784
1181.1860,90.1904
1182.1503,89.613
1183.1145,89.0566
1184.0787,88.5233
1185.0430,88.0119
1186.0072,87.5187
1186.9714,87.0386
1187.9357,86.5667
1188.8999,86.1006
1189.8641,85.6408
1190.8284,85.1897
1191.7926,84.7506
1192.7568,84.3261
1193.7211,83.9174
1194.6853,83.5242
1195.6495,83.1446
1196.6138,82.7751
1197.5780,82.4113
1198.5422,82.048
1199.5065,81.6914
1200.4707,81.3172
1201.4349,80.9382
1202.3992,80.5586
1203.3634,80.1846
1204.3276,79.8227
1205.2919,79.4777
1206.2561,79.1521
1207.2203,78.8471
1208.1846,78.5634
1209.1488,78.3031
1210.1130,78.0693
1211.0773,77.8653
1212.0415,77.6926
1213.0057,77.5499
1213.9700,77.4344
1214.9342,77.3432
1215.8984,77.2761
1216.8627,77.2352
1217.8269,77.2236
1218.7911,77.2424
1219.7554,77.2888
1220.7196,77.3563
1221.6838,77.4365
1222.6481,77.5214
1223.6123,77.6039
1224.5765,77.6777
1225.5408,77.7358
1226.5050,77.7698
1227.4692,77.7691
1228.4335,77.7221
1229.3977,77.6195
1230.3619,77.4599
1231.3262,77.2565
1232.2904,77.0415
1233.2546,76.8636
1234.2189,76.7775
1235.1831,76.8289
1236.1473,77.0418
1237.1116,77.4145
1238.0758,77.9265
1239.0400,78.5494
1240.0043,79.2556
1240.9685,80.0173
1241.9327,80.8001
1242.8970,81.5584
1243.8612,82.2405
1244.8254,82.8028
1245.7897,83.2257
1246.7539,83.5196
1247.7181,83.7179
1248.6824,83.861
1249.6466,83.9799
1250.6108,84.0883
1251.5751,84.1839
1252.5393,84.2569
1253.5035,84.2977
1254.4678,84.3024
1255.4320,84.2731
1256.3962,84.2158
1257.3605,84.1375
1258.3247,84.0441
1259.2889,83.9393
1260.2532,83.8243
1261.2174,83.6986
1262.1816,83.5615
1263.1459,83.4126
1264.1101,83.2532
1265.0743,83.0864
1266.0386,82.917
1267.0028,82.7519
1267.9670,82.5994
1268.9313,82.4688
1269.8955,82.3687
1270.8597,82.3055
1271.8240,82.2826
1272.7882,82.3003
1273.7524,82.3568
1274.7167,82.4494
1275.6809,82.5755
1276.6451,82.732
1277.6094,82.9155
1278.5736,83.1216
1279.5378,83.3449
1280.5021,83.5798
1281.4663,83.8205
1282.4305,84.0625
1283.3948,84.3026
1284.3590,84.5388
1285.3232,84.7708
1286.2875,84.9978
1287.2517,85.2188
1288.2159,85.4317
1289.1802,85.6347
1290.1444,85.827
1291.1086,86.0098
1292.0729,86.1854
1293.0371,86.3555
1294.0013,86.5199
1294.9656,86.6766
1295.9298,86.8222
1296.8940,86.9537
1297.8583,87.0691
1298.8225,87.1673
1299.7867,87.2475
1300.7510,87.3094
1301.7152,87.3529
1302.6794,87.3794
1303.6437,87.3911
1304.6079,87.3901
1305.5721,87.3763
1306.5364,87.3478
1307.5006,87.3011
1308.4648,87.2338
1309.4291,87.1467
1310.3933,87.0437
1311.3575,86.9305
1312.3218,86.8127
1313.2860,86.6939
1314.2502,86.5754
1315.2145,86.4576
1316.1787,86.3418
1317.1429,86.2307
1318.1072,86.1268
1319.0714,86.0309
1320.0356,85.941
1320.9999,85.8552
1321.9641,85.7752
1322.9283,85.6948
1323.8926,85.6175
1324.8568,85.5494
1325.8210,85.4969
1326.7853,85.4665
1327.7495,85.4635
1328.7137,85.4927
1329.6780,85.5571
1330.6422,85.6567
1331.6064,85.7858
1332.5707,85.9331
1333.5349,86.0853
1334.4991,86.2327
1335.4634,86.375
1336.4276,86.524
1337.3918,86.7006
1338.3561,86.9227
1339.3203,87.1886
1340.2845,87.4702
1341.2488,87.7299
1342.2130,87.9434
1343.1772,88.1071
1344.1415,88.2306
1345.1057,88.3263
1346.0699,88.4038
1347.0342,88.4682
1347.9984,88.5205
1348.9626,88.5586
1349.9269,88.5791
1350.8911,88.5802
1351.8553,88.5633
1352.8196,88.5336
1353.7838,88.4979
1354.7480,88.4606
1355.7123,88.4201
1356.6765,88.3696
1357.6407,88.302
1358.6050,88.2145
1359.5692,88.112
1360.5334,88.0072
1361.4977,87.9179
1362.4619,87.8549
1363.4261,87.8117
1364.3904,87.7695
1365.3546,87.713
1366.3188,87.6381
1367.2831,87.5484
1368.2473,87.4495
1369.2115,87.3447
1370.1758,87.235
1371.1400,87.121
1372.1042,87.0071
1373.0685,86.9026
1374.0327,86.8168
1374.9969,86.7502
1375.9612,86.6908
1376.9254,86.6244
1377.8896,86.5465
1378.8539,86.4663
1379.8181,86.3998
1380.7823,86.3609
1381.7466,86.3551
1382.7108,86.3816
1383.6750,86.4413
1384.6393,86.5406
1385.6035,86.685
1386.5677,86.8588
1387.5320,87.0118
1388.4962,87.0801
1389.4604,87.03
1390.4247,86.8737
1391.3889,86.6531
1392.3531,86.4227
1393.3174,86.2414
1394.2816,86.1584
1395.2458,86.186
1396.2101,86.281
1397.1743,86.3663
1398.1385,86.3792
1399.1028,86.3001
1400.0670,86.1456
1401.0313,85.9457
1401.9955,85.7267
1402.9597,85.5072
1403.9240,85.3001
1404.8882,85.1149
1405.8524,84.9545
1406.8167,84.8131
1407.7809,84.6805
1408.7451,84.5485
1409.7094,84.4132
1410.6736,84.2726
1411.6378,84.1242
1412.6021,83.9651
1413.5663,83.7938
1414.5305,83.6112
1415.4948,83.4179
1416.4590,83.2141
1417.4232,83.003
1418.3875,82.793
1419.3517,82.5874
1420.3159,82.379
1421.2802,82.1642
1422.2444,81.9528
1423.2086,81.7613
1424.1729,81.6022
1425.1371,81.4809
1426.1013,81.3993
1427.0656,81.3651
1428.0298,81.3936
1428.9940,81.4982
1429.9583,81.6719
1430.9225,81.8826
1431.8867,82.0961
1432.8510,82.3034
1433.8152,82.5263
1434.7794,82.7983
1435.7437,83.129
1436.7079,83.463
1437.6721,83.6969
1438.6364,83.7643
1439.6006,83.6772
1440.5648,83.4835
1441.5291,83.2224
1442.4933,82.9125
1443.4575,82.5594
1444.4218,82.1642
1445.3860,81.7288
1446.3502,81.2597
1447.3145,80.7724
1448.2787,80.2908
1449.2429,79.8386
1450.2072,79.4296
1451.1714,79.0671
1452.1356,78.7495
1453.0999,78.4736
1454.0641,78.2349
1455.0283,78.0383
1455.9926,77.9234
1456.9568,77.9472
1457.9210,78.0593
1458.8853,78.1169
1459.8495,78.0729
1460.8137,77.9828
1461.7780,77.9251
1462.7422,77.9796
1463.7064,78.2247
1464.6707,78.6943
1465.6349,79.3175
1466.5991,79.9596
1467.5634,80.5439
1468.5276,81.0924
1469.4918,81.6853
1470.4561,82.4248
1471.4203,83.4046
1472.3845,84.6327
1473.3488,85.9307
1474.3130,87.0304
1475.2772,87.819
1476.2415,88.3604
1477.2057,88.7535
1478.1699,89.0605
1479.1342,89.3106
1480.0984,89.5187
1481.0626,89.6934
1482.0269,89.8368
1482.9911,89.9438
1483.9553,90.0078
1484.9196,90.0253
1485.8838,89.999
1486.8480,89.9396
1487.8123,89.8729
1488.7765,89.8338
1489.7407,89.828
1490.7050,89.8122
1491.6692,89.7455
1492.6334,89.6245
1493.5977,89.4635
1494.5619,89.274
1495.5261,89.0643
1496.4904,88.8528
1497.4546,88.666
1498.4188,88.5075
1499.3831,88.35
1500.3473,88.175
1501.3115,87.9907
1502.2758,87.8114
1503.2400,87.6306
1504.2042,87.3954
1505.1685,86.9934
1506.1327,86.3148
1507.0969,85.4564
1508.0612,84.7036
1509.0254,84.1253
1509.9896,83.6099
1510.9539,83.094
1511.9181,82.5824
1512.8823,82.1222
1513.8466,81.792
1514.8108,81.6813
1515.7750,81.8457
1516.7393,82.2736
1517.7035,82.9238
1518.6677,83.8084
1519.6320,85.01
1520.5962,86.5671
1521.5604,88.3251
1522.5247,89.9886
1523.4889,91.3681
1524.4531,92.499
1525.4174,93.5207
1526.3816,94.5087
1527.3458,95.4232
1528.3101,96.1842
1529.2743,96.7622
1530.2385,97.2021
1531.2028,97.5903
1532.1670,98.0029
1533.1312,98.4472
1534.0955,98.8504
1535.0597,99.138
1536.0239,99.3032
1536.9882,99.3828
1537.9524,99.4008
1538.9166,99.3566
1539.8809,99.2846
1540.8451,99.3018
1541.8093,99.45
1542.7736,99.6231
1543.7378,99.7489
1544.7020,99.8545
1545.6663,99.9154
1546.6305,99.936
1547.5947,99.9243
1548.5590,99.8928
1549.5232,99.8513
1550.4874,99.8005
1551.4517,99.7344
1552.4159,99.6509
1553.3801,99.5602
1554.3444,99.4788
1555.3086,99.4135
1556.2728,99.3503
1557.2371,99.2773
1558.2013,99.2417
1559.1655,99.2724
1560.1298,99.2443
1561.0940,99.0813
1562.0582,98.8403
1563.0225,98.5928
1563.9867,98.374
1564.9509,98.1874
1565.9152,98.0168
1566.8794,97.8359
1567.8436,97.6208
1568.8079,97.3664
1569.7721,97.0917
1570.7363,96.823
1571.7006,96.574
1572.6648,96.3378
1573.6290,96.0826
1574.5933,95.7617
1575.5575,95.3537
1576.5217,94.9057
1577.4860,94.4916
1578.4502,94.1295
1579.4144,93.7906
1580.3787,93.4453
1581.3429,93.0766
1582.3071,92.6808
1583.2714,92.2679
1584.2356,91.8549
1585.1998,91.4543
1586.1641,91.0696
1587.1283,90.7007
1588.0925,90.35
1589.0568,90.0223
1590.0210,89.7197
1590.9852,89.4384
1591.9495,89.1716
1592.9137,88.9159
1593.8779,88.6729
1594.8422,88.4464
1595.8064,88.2372
1596.7706,88.0415
1597.7349,87.8539
1598.6991,87.6725
1599.6633,87.5003
1600.6276,87.3447
1601.5918,87.2145
1602.5560,87.1151
1603.5203,87.0454
1604.4845,86.998
1605.4487,86.9653
1606.4130,86.9463
1607.3772,86.9502
1608.3414,86.99
1609.3057,87.0696
1610.2699,87.176
1611.2341,87.2916
1612.1984,87.4144
1613.1626,87.5694
1614.1268,87.8102
1615.0911,88.2053
1616.0553,88.7763
1617.0195,89.4153
1617.9838,89.9492
1618.9480,90.3118
1619.9122,90.5665
1620.8765,90.8119
1621.8407,91.1137
1622.8049,91.4787
1623.7692,91.8563
1624.7334,92.1808
1625.6976,92.4273
1626.6619,92.6179
1627.6261,92.7819
1628.5903,92.9252
1629.5546,93.0365
1630.5188,93.1115
1631.4830,93.161
1632.4473,93.1979
1633.4115,93.2233
1634.3757,93.2364
1635.3400,93.2587
1636.3042,93.3093
1637.2684,93.3521
1638.2327,93.3435
1639.1969,93.288
1640.1611,93.2143
1641.1254,93.1449
1642.0896,93.0886
1643.0538,93.0374
1644.0181,92.9661
1644.9823,92.8457
1645.9465,92.6803
1646.9108,92.5227
1647.8750,92.4191
1648.8392,92.3773
1649.8035,92.388
1650.7677,92.4277
1651.7319,92.452
1652.6962,92.4329
1653.6604,92.3804
1654.6246,92.2645
1655.5889,92.06
1656.5531,91.8193
1657.5173,91.6046
1658.4816,91.4415
1659.4458,91.323
1660.4100,91.2272
1661.3743,91.1371
1662.3385,91.0469
1663.3027,90.9535
1664.2670,90.8531
1665.2312,90.7459
1666.1954,90.6324
1667.1597,90.5067
1668.1239,90.365
1669.0881,90.2218
1670.0524,90.1053
1671.0166,90.0261
1671.9808,89.9722
1672.9451,89.93
1673.9093,89.8885
1674.8735,89.8285
1675.8378,89.7236
1676.8020,89.5588
1677.7662,89.3488
1678.7305,89.1316
1679.6947,88.942
1680.6589,88.7899
1681.6232,88.6538
1682.5874,88.5011
1683.5516,88.3263
1684.5159,88.1429
1685.4801,87.9345
1686.4443,87.6797
1687.4086,87.3883
1688.3728,87.0854
1689.3370,86.7931
1690.3013,86.5252
1691.2655,86.2831
1692.2297,86.0509
1693.1940,85.797
1694.1582,85.4867
1695.1224,85.1073
1696.0867,84.6934
1697.0509,84.3206
1698.0151,84.0468
1698.9794,83.8498
1699.9436,83.6451
1700.9078,83.3746
1701.8721,83.0517
1702.8363,82.7305
1703.8005,82.46
1704.7648,82.2648
1705.7290,82.1441
1706.6932,82.0772
1707.6575,82.0353
1708.6217,81.9972
1709.5859,81.9582
1710.5502,81.9245
1711.5144,81.9031
1712.4786,81.8975
1713.4429,81.9135
1714.4071,81.9761
1715.3713,82.1466
1716.3356,82.4938
1717.2998,82.9769
1718.2640,83.4198
1719.2283,83.702
1720.1925,83.8523
1721.1567,83.9607
1722.1210,84.0967
1723.0852,84.2873
1724.0494,84.5227
1725.0137,84.7742
1725.9779,85.0147
1726.9421,85.2321
1727.9064,85.43
1728.8706,85.6213
1729.8348,85.8249
1730.7991,86.0694
1731.7633,86.3968
1732.7275,86.8381
1733.6918,87.346
1734.6560,87.7859
1735.6202,88.0689
1736.5845,88.2324
1737.5487,88.3732
1738.5129,88.5685
1739.4772,88.8449
1740.4414,89.1777
1741.4056,89.5129
1742.3699,89.807
1743.3341,90.0541
1744.2983,90.2766
1745.2626,90.4996
1746.2268,90.7406
1747.1910,91.0155
1748.1553,91.3455
1749.1195,91.7399
1750.0837,92.1609
1751.0480,92.5304
1752.0122,92.7966
1752.9764,92.9702
1753.9407,93.0992
1754.9049,93.2296
1755.8691,93.3838
1756.8334,93.5593
1757.7976,93.7415
1758.7618,93.9212
1759.7261,94.103
1760.6903,94.2969
1761.6545,94.5013
1762.6188,94.6982
1763.5830,94.8674
1764.5472,95.004
1765.5115,95.1196
1766.4757,95.2286
1767.4399,95.3373
1768.4042,95.444
1769.3684,95.5498
1770.3326,95.6722
1771.2969,95.8433
1772.2611,96.0753
1773.2253,96.3303
1774.1896,96.551
1775.1538,96.7165
1776.1180,96.8484
1777.0823,96.9802
1778.0465,97.1331
1779.0107,97.3085
1779.9750,97.4934
1780.9392,97.6715
1781.9034,97.8339
1782.8677,97.98
1783.8319,98.1098
1784.7961,98.2185
1785.7604,98.3003
1786.7246,98.3567
1787.6888,98.3989
1788.6531,98.4408
1789.6173,98.4902
1790.5815,98.549
1791.5458,98.6171
1792.5100,98.6881
1793.4742,98.744
1794.4385,98.7724
1795.4027,98.7822
1796.3669,98.7941
1797.3312,98.8222
1798.2954,98.8681
1799.2596,98.9253
1800.2239,98.9862
1801.1881,99.0439
1802.1523,99.093
1803.1166,99.1303
1804.0808,99.1562
1805.0450,99.1726
1806.0093,99.181
1806.9735,99.1827
1807.9377,99.1894
1808.9020,99.2043
1809.8662,99.228
1810.8304,99.2641
1811.7947,99.3086
1812.7589,99.3531
1813.7231,99.3919
1814.6874,99.4238
1815.6516,99.4503
1816.6158,99.4726
1817.5801,99.4912
1818.5443,99.5061
1819.5085,99.5188
1820.4728,99.532
1821.4370,99.5482
1822.4012,99.5673
1823.3655,99.5861
1824.3297,99.5997
1825.2939,99.6041
1826.2582,99.5993
1827.2224,99.5916
1828.1866,99.5918
1829.1509,99.6095
1830.1151,99.6436
1831.0793,99.6791
1832.0436,99.6996
1833.0078,99.7028
1833.9720,99.6978
1834.9363,99.6949
1835.9005,99.6977
1836.8647,99.704
1837.8290,99.7106
1838.7932,99.7176
1839.7574,99.7296
1840.7217,99.7498
1841.6859,99.7747
1842.6501,99.7962
1843.6144,99.8097
1844.5786,99.816
1845.5428,99.8158
1846.5071,99.8098
1847.4713,99.8042
1848.4355,99.8071
1849.3998,99.8206
1850.3640,99.8395
1851.3282,99.8555
1852.2925,99.8639
1853.2567,99.8653
1854.2209,99.8638
1855.1852,99.8631
1856.1494,99.8645
1857.1136,99.8674
1858.0779,99.8711
1859.0421,99.8755
1860.0063,99.8795
1860.9706,99.8803
1861.9348,99.874
1862.8990,99.8585
1863.8633,99.8353
1864.8275,99.8087
1865.7917,99.7853
1866.7560,99.7749
1867.7202,99.7904
1868.6844,99.8357
1869.6487,99.8934
1870.6129,99.9372
1871.5771,99.9553
1872.5414,99.9552
1873.5056,99.9494
1874.4698,99.9457
1875.4341,99.9455
1876.3983,99.9471
1877.3625,99.9492
1878.3268,99.9516
1879.2910,99.9545
1880.2552,99.9571
1881.2195,99.957
1882.1837,99.9517
1883.1479,99.9405
1884.1122,99.9258
1885.0764,99.9122
1886.0406,99.9046
1887.0049,99.9055
1887.9691,99.9143
1888.9333,99.9266
1889.8976,99.9357
1890.8618,99.9355
1891.8260,99.9247
1892.7903,99.9081
1893.7545,99.8933
1894.7188,99.8867
1895.6830,99.8901
1896.6472,99.9004
1897.6115,99.9112
1898.5757,99.9172
1899.5399,99.9168
1900.5042,99.9113
1901.4684,99.9035
1902.4326,99.8953
1903.3969,99.8862
1904.3611,99.8748
1905.3253,99.8597
1906.2896,99.8423
1907.2538,99.8265
1908.2180,99.8176
1909.1823,99.8191
1910.1465,99.8289
1911.1107,99.8408
1912.0750,99.849
1913.0392,99.8527
1914.0034,99.8547
1914.9677,99.8575
1915.9319,99.861
1916.8961,99.8617
1917.8604,99.8547
1918.8246,99.8369
1919.7888,99.8104
1920.7531,99.7832
1921.7173,99.7648
1922.6815,99.7607
1923.6458,99.7693
1924.6100,99.7824
1925.5742,99.7918
1926.5385,99.7936
1927.5027,99.7891
1928.4669,99.7815
1929.4312,99.7733
1930.3954,99.7657
1931.3596,99.7595
1932.3239,99.7557
1933.2881,99.7556
1934.2523,99.7591
1935.2166,99.7641
1936.1808,99.767
1937.1450,99.7646
1938.1093,99.7561
1939.0735,99.7429
1940.0377,99.7276
1941.0020,99.7136
1941.9662,99.7043
1942.9304,99.7016
1943.8947,99.7041
1944.8589,99.7093
1945.8231,99.716
1946.7874,99.724
1947.7516,99.7329
1948.7158,99.7405
1949.6801,99.7446
1950.6443,99.744
1951.6085,99.7402
1952.5728,99.7363
1953.5370,99.735
1954.5012,99.7373
1955.4655,99.7423
1956.4297,99.7481
1957.3939,99.7533
1958.3582,99.7574
1959.3224,99.7605
1960.2866,99.7624
1961.2509,99.7622
1962.2151,99.759
1963.1793,99.753
1964.1436,99.746
1965.1078,99.7411
1966.0720,99.7416
1967.0363,99.7489
1968.0005,99.7612
1968.9647,99.7743
1969.9290,99.7845
1970.8932,99.7903
1971.8574,99.793
1972.8217,99.7945
1973.7859,99.7963
1974.7501,99.799
1975.7144,99.8022
1976.6786,99.8047
1977.6428,99.8056
1978.6071,99.8045
1979.5713,99.8016
1980.5355,99.7979
1981.4998,99.7941
1982.4640,99.7906
1983.4282,99.7874
1984.3925,99.7838
1985.3567,99.7792
1986.3209,99.7731
1987.2852,99.7663
1988.2494,99.7599
1989.2136,99.7555
1990.1779,99.7547
1991.1421,99.7578
1992.1063,99.7634
1993.0706,99.7683
1994.0348,99.7688
1994.9990,99.7632
1995.9633,99.7529
1996.9275,99.7408
1997.8917,99.7305
1998.8560,99.725
1999.8202,99.725
2000.7844,99.729
2001.7487,99.7339
2002.7129,99.7365
2003.6771,99.7345
2004.6414,99.7274
2005.6056,99.7165
2006.5698,99.7037
2007.5341,99.6915
2008.4983,99.6814
2009.4625,99.674
2010.4268,99.6687
2011.3910,99.6643
2012.3552,99.6595
2013.3195,99.6535
2014.2837,99.6465
2015.2479,99.6399
2016.2122,99.6356
2017.1764,99.6344
2018.1406,99.6354
2019.1049,99.6363
2020.0691,99.635
2021.0333,99.6312
2021.9976,99.6263
2022.9618,99.6224
2023.9260,99.6213
2024.8903,99.6228
2025.8545,99.6252
2026.8187,99.6261
2027.7830,99.6238
2028.7472,99.6182
2029.7114,99.6103
2030.6757,99.6018
2031.6399,99.5942
2032.6041,99.5888
2033.5684,99.5862
2034.5326,99.5866
2035.4968,99.5889
2036.4611,99.5918
2037.4253,99.5933
2038.3895,99.5923
2039.3538,99.5892
2040.3180,99.5858
2041.2822,99.5841
2042.2465,99.5852
2043.2107,99.588
2044.1749,99.5903
2045.1392,99.5901
2046.1034,99.5868
2047.0676,99.5815
2048.0320,99.5762
2048.9961,99.5727
2049.9604,99.5715
2050.9246,99.5722
2051.8889,99.5733
2052.8530,99.5731
2053.8174,99.5709
2054.7815,99.5669
2055.7458,99.5623
2056.7100,99.5585
2057.6743,99.5562
2058.6384,99.5548
2059.6028,99.5529
2060.5669,99.549
2061.5313,99.5433
2062.4954,99.5373
2063.4597,99.5339
2064.4238,99.535
2065.3882,99.5406
2066.3523,99.5487
2067.3167,99.5567
2068.2808,99.5627
2069.2451,99.5669
2070.2092,99.5703
2071.1736,99.5736
2072.1377,99.577
2073.1021,99.5795
2074.0662,99.5801
2075.0305,99.5784
2075.9946,99.5751
2076.9590,99.5715
2077.9231,99.5687
2078.8875,99.5677
2079.8516,99.5688
2080.8159,99.5718
2081.7800,99.5759
2082.7444,99.5802
2083.7085,99.5838
2084.6729,99.5863
2085.6370,99.5883
2086.6013,99.5904
2087.5654,99.593
2088.5298,99.5956
2089.4939,99.5973
2090.4583,99.5972
2091.4224,99.5954
2092.3867,99.593
2093.3508,99.5917
2094.3152,99.5927
2095.2793,99.596
2096.2437,99.6004
2097.2078,99.6045
2098.1721,99.6074
2099.1362,99.6088
2100.1006,99.6087
2101.0647,99.6089
2102.0291,99.6089
2102.9932,99.6084
2103.9575,99.607
2104.9216,99.6047
2105.8860,99.602
2106.8501,99.5995
2107.8145,99.598
2108.7786,99.5979
2109.7429,99.5988
2110.7070,99.6001
2111.6714,99.601
2112.6355,99.6013
2113.5999,99.6014
2114.5640,99.6021
2115.5283,99.6038
2116.4924,99.6065
2117.4568,99.6093
2118.4209,99.611
2119.3853,99.6108
2120.3494,99.6084
2121.3137,99.6043
2122.2778,99.5995
2123.2422,99.5949
2124.2063,99.5913
2125.1707,99.5894
2126.1348,99.5899
2127.0991,99.5934
2128.0632,99.6
2129.0276,99.6087
2129.9917,99.6175
2130.9561,99.6236
2131.9202,99.6248
2132.8845,99.6209
2133.8486,99.6135
2134.8130,99.6061
2135.7771,99.6021
2136.7415,99.6035
2137.7056,99.6102
2138.6699,99.6202
2139.6340,99.6308
2140.5984,99.6396
2141.5625,99.6458
2142.5269,99.6497
2143.4910,99.6523
2144.4553,99.6549
2145.4194,99.6582
2146.3838,99.6624
2147.3479,99.6669
2148.3123,99.6707
2149.2764,99.6729
2150.2407,99.6731
2151.2048,99.6719
2152.1692,99.6706
2153.1333,99.6712
2154.0977,99.675
2155.0618,99.6821
2156.0261,99.6914
2156.9902,99.7009
2157.9546,99.7088
2158.9187,99.7142
2159.8831,99.7172
2160.8472,99.7188
2161.8115,99.7201
2162.7756,99.7218
2163.7400,99.7242
2164.7041,99.727
2165.6685,99.7303
2166.6326,99.7338
2167.5969,99.7377
2168.5610,99.7415
2169.5254,99.7451
2170.4895,99.7478
2171.4539,99.7495
2172.4180,99.7504
2173.3823,99.7511
2174.3464,99.7522
2175.3108,99.7544
2176.2749,99.7579
2177.2393,99.7624
2178.2034,99.767
2179.1677,99.7706
2180.1318,99.7721
2181.0962,99.7705
2182.0603,99.7661
2183.0247,99.7599
2183.9888,99.754
2184.9531,99.7508
2185.9172,99.7516
2186.8816,99.7563
2187.8457,99.7628
2188.8101,99.7684
2189.7742,99.7709
2190.7385,99.7703
2191.7026,99.7682
2192.6670,99.7672
2193.6311,99.769
2194.5955,99.7739
2195.5596,99.78
2196.5239,99.7849
2197.4880,99.7861
2198.4524,99.7828
2199.4165,99.7756
2200.3809,99.7665
2201.3450,99.7582
2202.3093,99.7528
2203.2734,99.7513
2204.2378,99.7531
2205.2019,99.7564
2206.1663,99.7592
2207.1304,99.7602
2208.0947,99.7595
2209.0588,99.7576
2210.0232,99.7548
2210.9873,99.7512
2211.9517,99.7462
2212.9158,99.7397
2213.8801,99.7326
2214.8442,99.7261
2215.8086,99.721
2216.7727,99.7173
2217.7371,99.7139
2218.7012,99.7097
2219.6655,99.7049
2220.6296,99.7006
2221.5940,99.6986
2222.5581,99.6997
2223.5225,99.7029
2224.4866,99.7059
2225.4509,99.706
2226.4150,99.7013
2227.3794,99.692
2228.3435,99.6798
2229.3079,99.6668
2230.2720,99.6553
2231.2363,99.6466
2232.2004,99.641
2233.1648,99.6383
2234.1289,99.6379
2235.0933,99.6393
2236.0574,99.6414
2237.0217,99.6434
2237.9858,99.6441
2238.9502,99.6424
2239.9143,99.6376
2240.8787,99.6295
2241.8428,99.6183
2242.8071,99.6051
2243.7712,99.5914
2244.7356,99.579
2245.6997,99.5697
2246.6641,99.5645
2247.6282,99.5632
2248.5925,99.5645
2249.5566,99.566
2250.5210,99.5651
2251.4851,99.5601
2252.4495,99.5501
2253.4136,99.5358
2254.3779,99.5187
2255.3420,99.5009
2256.3064,99.4843
2257.2705,99.4703
2258.2349,99.4594
2259.1990,99.451
2260.1633,99.4442
2261.1274,99.438
2262.0918,99.4319
2263.0559,99.4264
2264.0203,99.4219
2264.9844,99.4186
2265.9487,99.4157
2266.9128,99.4114
2267.8772,99.4045
2268.8413,99.3944
2269.8057,99.3823
2270.7698,99.3707
2271.7341,99.3615
2272.6982,99.3561
2273.6626,99.354
2274.6267,99.3541
2275.5911,99.3557
2276.5552,99.3585
2277.5195,99.363
2278.4836,99.3691
2279.4480,99.3759
2280.4121,99.3812
2281.3765,99.3827
2282.3406,99.3786
2283.3049,99.3685
2284.2690,99.353
2285.2334,99.3338
2286.1975,99.3124
2287.1619,99.2903
2288.1260,99.2679
2289.0903,99.2452
2290.0544,99.222
2291.0188,99.1985
2291.9829,99.1759
2292.9473,99.1557
2293.9114,99.1391
2294.8757,99.1264
2295.8398,99.1173
2296.8042,99.1114
2297.7683,99.1096
2298.7327,99.1145
2299.6968,99.1291
2300.6611,99.1545
2301.6252,99.1887
2302.5896,99.2263
2303.5537,99.2599
2304.5181,99.2839
2305.4822,99.2963
2306.4465,99.3003
2307.4106,99.3033
2308.3750,99.3138
2309.3391,99.3379
2310.3035,99.3769
2311.2676,99.4265
2312.2319,99.4792
2313.1960,99.5277
2314.1604,99.568
2315.1245,99.6012
2316.0889,99.6322
2317.0530,99.6672
2318.0173,99.7092
2318.9814,99.7548
2319.9458,99.7917
2320.9099,99.8004
2321.8743,99.7614
2322.8384,99.6664
2323.8027,99.5278
2324.7668,99.3774
2325.7312,99.2544
2326.6953,99.1895
2327.6597,99.1913
2328.6238,99.2426
2329.5881,99.3063
2330.5522,99.3411
2331.5166,99.3211
2332.4807,99.2462
2333.4451,99.1384
2334.4092,99.0269
2335.3735,98.933
2336.3376,98.8618
2337.3020,98.804
2338.2661,98.7437
2339.2305,98.6715
2340.1946,98.5973
2341.1589,98.5595
2342.1230,98.6163
2343.0874,98.7976
2344.0515,99.0356
2345.0159,99.1839
2345.9800,99.1521
2346.9443,98.9826
2347.9084,98.7911
2348.8728,98.6765
2349.8369,98.6734
2350.8013,98.7476
2351.7654,98.8198
2352.7297,98.816
2353.6938,98.7219
2354.6582,98.5878
2355.6223,98.4682
2356.5867,98.3755
2357.5508,98.3005
2358.5151,98.2457
2359.4792,98.2209
2360.4436,98.2214
2361.4077,98.2285
2362.3721,98.2362
2363.3362,98.2629
2364.3005,98.336
2365.2646,98.4682
2366.2290,98.6499
2367.1931,98.8599
2368.1575,99.0771
2369.1216,99.2852
2370.0859,99.4714
2371.0500,99.6248
2372.0144,99.7368
2372.9785,99.8014
2373.9429,99.8146
2374.9070,99.7752
2375.8713,99.6869
2376.8354,99.5593
2377.7998,99.4076
2378.7639,99.25
2379.7283,99.1133
2380.6924,99.0119
2381.6567,98.9424
2382.6208,98.9045
2383.5852,98.8929
2384.5493,98.8986
2385.5137,98.9125
2386.4778,98.9266
2387.4421,98.9362
2388.4063,98.9394
2389.3706,98.9373
2390.3347,98.9325
2391.2991,98.9282
2392.2632,98.9278
2393.2275,98.9338
2394.1917,98.9471
2395.1560,98.9671
2396.1201,98.9915
2397.0845,99.0169
2398.0486,99.0395
2399.0129,99.0564
2399.9771,99.066
2400.9414,99.0681
2401.9055,99.0641
2402.8699,99.0564
2403.8340,99.0482
2404.7983,99.0427
2405.7625,99.0426
2406.7268,99.0492
2407.6909,99.0623
2408.6553,99.0801
2409.6194,99.1004
2410.5837,99.1206
2411.5479,99.1387
2412.5122,99.1529
2413.4763,99.1618
2414.4407,99.1645
2415.4048,99.1612
2416.3691,99.1536
2417.3333,99.1453
2418.2976,99.1401
2419.2617,99.1411
2420.2261,99.1491
2421.1902,99.1632
2422.1545,99.1809
2423.1187,99.2
2424.0830,99.2187
2425.0471,99.2357
2426.0115,99.2492
2426.9756,99.2574
2427.9399,99.2593
2428.9041,99.2557
2429.8684,99.2493
2430.8325,99.2443
2431.7969,99.2438
2432.7610,99.2494
2433.7253,99.26
2434.6895,99.2734
2435.6538,99.2876
2436.6179,99.3014
2437.5823,99.3143
2438.5464,99.3258
2439.5107,99.3348
2440.4749,99.3403
2441.4392,99.3416
2442.4033,99.3395
2443.3677,99.3361
2444.3318,99.3342
2445.2961,99.3365
2446.2603,99.3437
2447.2246,99.3553
2448.1887,99.3693
2449.1531,99.3832
2450.1172,99.3952
2451.0815,99.4042
2452.0457,99.4103
2453.0100,99.4136
2453.9741,99.4145
2454.9385,99.413
2455.9026,99.4094
2456.8669,99.4046
2457.8311,99.4002
2458.7954,99.3985
2459.7595,99.4017
2460.7239,99.4108
2461.6880,99.425
2462.6523,99.442
2463.6165,99.4582
2464.5808,99.4702
2465.5449,99.4761
2466.5093,99.4759
2467.4734,99.4714
2468.4377,99.4653
2469.4019,99.4602
2470.3662,99.4575
2471.3303,99.4577
2472.2947,99.4606
2473.2588,99.4658
2474.2231,99.4731
2475.1873,99.482
2476.1516,99.492
2477.1157,99.5023
2478.0801,99.5115
2479.0442,99.5187
2480.0085,99.5229
2480.9727,99.5237
2481.9370,99.5213
2482.9011,99.5168
2483.8655,99.5119
2484.8296,99.5089
2485.7939,99.5104
2486.7581,99.5179
2487.7224,99.5313
2488.6865,99.5489
2489.6509,99.5676
2490.6150,99.5837
2491.5793,99.5944
2492.5435,99.5987
2493.5078,99.5975
2494.4719,99.5934
2495.4363,99.5897
2496.4004,99.5893
2497.3647,99.5929
2498.3289,99.5998
2499.2932,99.6081
2500.2573,99.6161
2501.2217,99.6239
2502.1858,99.6327
2503.1501,99.6441
2504.1143,99.6583
2505.0786,99.6733
2506.0427,99.6856
2507.0071,99.6918
2507.9712,99.6908
2508.9355,99.6843
2509.8997,99.6763
2510.8640,99.6709
2511.8281,99.6714
2512.7925,99.6785
2513.7566,99.6914
2514.7209,99.708
2515.6851,99.7257
2516.6494,99.742
2517.6135,99.7548
2518.5779,99.7629
2519.5420,99.7664
2520.5063,99.7667
2521.4705,99.7658
2522.4348,99.7656
2523.3989,99.7669
2524.3633,99.7699
2525.3274,99.7746
2526.2917,99.7811
2527.2559,99.7903
2528.2202,99.8024
2529.1843,99.8171
2530.1487,99.8327
2531.1128,99.8469
2532.0771,99.8573
2533.0413,99.8626
2534.0056,99.8631
2534.9697,99.8603
2535.9341,99.8566
2536.8982,99.8545
2537.8625,99.8562
2538.8267,99.8629
2539.7910,99.8749
2540.7551,99.8908
2541.7195,99.9088
2542.6836,99.9269
2543.6479,99.9437
2544.6121,99.9578
2545.5764,99.9684
2546.5405,99.9746
2547.5049,99.9762
2548.4690,99.9738
2549.4333,99.9697
2550.3975,99.9673
2551.3618,99.9699
2552.3259,99.9795
2553.2903,99.9958
2554.2544,100.016
2555.2188,100.038
2556.1829,100.057
2557.1472,100.073
2558.1113,100.085
2559.0757,100.091
2560.0398,100.093
2561.0042,100.09
2561.9683,100.083
2562.9326,100.076
2563.8967,100.071
2564.8611,100.072
2565.8252,100.084
2566.7896,100.104
2567.7537,100.129
2568.7180,100.154
2569.6821,100.174
2570.6465,100.188
2571.6106,100.192
2572.5750,100.189
2573.5391,100.181
2574.5034,100.17
2575.4675,100.158
2576.4319,100.15
2577.3960,100.148
2578.3604,100.155
2579.3245,100.172
2580.2888,100.195
2581.2529,100.221
2582.2173,100.244
2583.1814,100.26
2584.1458,100.266
2585.1099,100.263
2586.0742,100.253
2587.0383,100.24
2588.0027,100.227
2588.9668,100.217
2589.9312,100.212
2590.8953,100.214
2591.8596,100.223
2592.8237,100.237
2593.7881,100.256
2594.7522,100.274
2595.7166,100.289
2596.6807,100.299
2597.6450,100.302
2598.6091,100.301
2599.5735,100.296
2600.5376,100.289
2601.5020,100.28
2602.4661,100.27
2603.4304,100.261
2604.3945,100.256
2605.3589,100.26
2606.3230,100.274
2607.2874,100.297
2608.2515,100.325
2609.2158,100.35
2610.1799,100.366
2611.1443,100.371
2612.1084,100.365
2613.0728,100.352
2614.0369,100.337
2615.0012,100.325
2615.9653,100.317
2616.9297,100.314
2617.8938,100.318
2618.8582,100.327
2619.8223,100.342
2620.7866,100.361
2621.7507,100.38
2622.7151,100.394
2623.6792,100.402
2624.6436,100.401
2625.6077,100.393
2626.5720,100.379
2627.5361,100.364
2628.5005,100.351
2629.4646,100.342
2630.4290,100.338
2631.3931,100.342
2632.3574,100.353
2633.3215,100.37
2634.2859,100.392
2635.2500,100.413
2636.2144,100.43
2637.1785,100.439
2638.1428,100.442
2639.1069,100.438
2640.0713,100.431
2641.0354,100.424
2641.9998,100.421
2642.9639,100.42
2643.9282,100.424
2644.8923,100.432
2645.8567,100.444
2646.8208,100.461
2647.7852,100.482
2648.7493,100.503
2649.7136,100.52
2650.6777,100.529
2651.6421,100.529
2652.6062,100.521
2653.5706,100.509
2654.5347,100.499
2655.4990,100.496
2656.4631,100.5
2657.4275,100.513
2658.3916,100.533
2659.3560,100.555
2660.3201,100.579
2661.2844,100.602
2662.2485,100.622
2663.2129,100.641
2664.1770,100.657
2665.1414,100.668
2666.1055,100.675
2667.0698,100.677
2668.0339,100.675
2668.9983,100.673
2669.9624,100.675
2670.9268,100.685
2671.8909,100.704
2672.8552,100.731
2673.8193,100.765
2674.7837,100.801
2675.7478,100.833
2676.7122,100.857
2677.6763,100.869
2678.6406,100.868
2679.6047,100.854
2680.5691,100.833
2681.5332,100.809
2682.4976,100.791
2683.4617,100.783
2684.4260,100.788
2685.3901,100.807
2686.3545,100.835
2687.3186,100.867
2688.2830,100.897
2689.2471,100.92
2690.2114,100.933
2691.1755,100.938
2692.1399,100.936
2693.1040,100.929
2694.0684,100.92
2695.0325,100.911
2695.9968,100.904
2696.9609,100.901
2697.9253,100.903
2698.8894,100.913
2699.8538,100.928
2700.8179,100.946
2701.7822,100.964
2702.7463,100.978
2703.7107,100.983
2704.6748,100.979
2705.6392,100.965
2706.6033,100.943
2707.5676,100.919
2708.5317,100.895
2709.4961,100.877
2710.4602,100.868
2711.4246,100.867
2712.3887,100.873
2713.3530,100.884
2714.3171,100.895
2715.2815,100.902
2716.2456,100.904
2717.2100,100.9
2718.1741,100.891
2719.1384,100.878
2720.1025,100.864
2721.0669,100.848
2722.0310,100.832
2722.9954,100.818
2723.9595,100.808
2724.9238,100.802
2725.8879,100.802
2726.8523,100.807
2727.8164,100.815
2728.7808,100.822
2729.7449,100.827
2730.7092,100.827
2731.6733,100.822
2732.6377,100.811
2733.6018,100.798
2734.5662,100.783
2735.5303,100.767
2736.4946,100.751
2737.4587,100.739
2738.4231,100.73
2739.3872,100.727
2740.3516,100.731
2741.3157,100.739
2742.2800,100.749
2743.2441,100.758
2744.2085,100.764
2745.1726,100.767
2746.1370,100.766
2747.1011,100.762
2748.0654,100.755
2749.0295,100.745
2749.9939,100.735
2750.9580,100.724
2751.9224,100.716
2752.8865,100.712
2753.8508,100.711
2754.8149,100.711
2755.7793,100.708
2756.7434,100.701
2757.7078,100.687
2758.6719,100.667
2759.6362,100.643
2760.6003,100.619
2761.5647,100.598
2762.5288,100.582
2763.4932,100.571
2764.4573,100.563
2765.4216,100.556
2766.3857,100.549
2767.3501,100.539
2768.3142,100.53
2769.2786,100.521
2770.2427,100.513
2771.2070,100.501
2772.1711,100.482
2773.1355,100.454
2774.0996,100.415
2775.0640,100.371
2776.0281,100.326
2776.9924,100.286
2777.9565,100.249
2778.9209,100.214
2779.8850,100.177
2780.8494,100.139
2781.8135,100.101
2782.7778,100.066
2783.7419,100.037
2784.7063,100.012
2785.6704,99.9881
2786.6348,99.9591
2787.5989,99.9224
2788.5632,99.8781
2789.5273,99.8295
2790.4917,99.7815
2791.4558,99.7381
2792.4202,99.7015
2793.3843,99.6712
2794.3486,99.6452
2795.3127,99.6205
2796.2771,99.5941
2797.2412,99.5634
2798.2056,99.5254
2799.1697,99.4745
2800.1340,99.4171
2801.0981,99.3547
2802.0625,99.2894
2803.0266,99.2236
2803.9910,99.1586
2804.9551,99.0949
2805.9194,99.0319
2806.8835,98.968
2807.8479,98.9015
2808.8120,98.8307
2809.7764,98.7543
2810.7405,98.6713
2811.7048,98.582
2812.6689,98.4879
2813.6333,98.3908
2814.5974,98.2923
2815.5618,98.1918
2816.5259,98.0871
2817.4902,97.9743
2818.4543,97.8497
2819.4187,97.7115
2820.3828,97.5601
2821.3472,97.3981
2822.3113,97.2286
2823.2756,97.0539
2824.2397,96.8743
2825.2041,96.6881
2826.1682,96.4922
2827.1326,96.283
2828.0967,96.0577
2829.0610,95.8152
2830.0251,95.5568
2830.9895,95.2859
2831.9536,95.0072
2832.9180,94.7257
2833.8821,94.445
2834.8464,94.1669
2835.8105,93.8913
2836.7749,93.6172
2837.7390,93.3438
2838.7034,93.0714
2839.6675,92.8011
2840.6318,92.5341
2841.5959,92.2703
2842.5603,92.0077
2843.5244,91.7431
2844.4888,91.4742
2845.4529,91.2023
2846.4172,90.9335
2847.3813,90.6784
2848.3457,90.4479
2849.3098,90.2494
2850.2742,90.0825
2851.2383,89.9395
2852.2026,89.8089
2853.1667,89.6802
2854.1311,89.5481
2855.0952,89.4127
2856.0596,89.277
2857.0237,89.1433
2857.9880,89.0105
2858.9521,88.8744
2859.9165,88.7295
2860.8806,88.5721
2861.8450,88.4018
2862.8091,88.2214
2863.7734,88.0358
2864.7375,87.8499
2865.7019,87.6674
2866.6660,87.4897
2867.6304,87.3164
2868.5945,87.1458
2869.5588,86.9766
2870.5229,86.8085
2871.4873,86.6427
2872.4514,86.4809
2873.4158,86.3246
2874.3799,86.174
2875.3442,86.0288
2876.3083,85.8876
2877.2727,85.7491
2878.2368,85.6127
2879.2012,85.4798
2880.1653,85.3541
2881.1296,85.2421
2882.0938,85.1511
2883.0581,85.0872
2884.0222,85.0522
2884.9866,85.0428
2885.9507,85.051
2886.9150,85.0665
2887.8792,85.0798
2888.8435,85.0851
2889.8076,85.082
2890.7720,85.0756
2891.7361,85.0728
2892.7004,85.0771
2893.6646,85.083
2894.6289,85.0745
2895.5930,85.0309
2896.5574,84.9378
2897.5215,84.7972
2898.4858,84.6311
2899.4500,84.4735
2900.4143,84.3548
2901.3784,84.288
2902.3428,84.2639
2903.3069,84.2569
2904.2712,84.239
2905.2354,84.1909
2906.1997,84.1063
2907.1638,83.9889
2908.1282,83.8455
2909.0923,83.6823
2910.0566,83.5038
2911.0208,83.3141
2911.9851,83.1182
2912.9492,82.9216
2913.9136,82.7294
2914.8777,82.5455
2915.8420,82.3722
2916.8062,82.2099
2917.7705,82.0579
2918.7346,81.9146
2919.6990,81.7789
2920.6631,81.6513
2921.6274,81.5344
2922.5916,81.4311
2923.5559,81.3434
2924.5200,81.2705
2925.4844,81.2099
2926.4485,81.1595
2927.4128,81.1192
2928.3770,81.0912
2929.3413,81.0783
2930.3054,81.0819
2931.2698,81.1015
2932.2339,81.1359
2933.1982,81.185
2934.1624,81.251
2935.1267,81.3371
2936.0908,81.4463
2937.0552,81.579
2938.0193,81.7331
2938.9836,81.9054
2939.9478,82.0936
2940.9121,82.2976
2941.8762,82.5191
2942.8406,82.7591
2943.8047,83.0161
2944.7690,83.2843
2945.7332,83.5543
2946.6975,83.8166
2947.6616,84.064
2948.6260,84.2942
2949.5901,84.5091
2950.5544,84.7125
2951.5186,84.9074
2952.4829,85.0948
2953.4470,85.274
2954.4114,85.4443
2955.3755,85.6064
2956.3398,85.7634
2957.3040,85.9191
2958.2683,86.0768
2959.2324,86.237
2960.1968,86.3969
2961.1609,86.5514
2962.1252,86.6957
2963.0894,86.8276
2964.0537,86.9484
2965.0178,87.0624
2965.9822,87.1744
2966.9463,87.2888
2967.9106,87.409
2968.8748,87.5386
2969.8391,87.6818
2970.8032,87.843
2971.7676,88.025
2972.7317,88.2269
2973.6960,88.4447
2974.6602,88.6721
2975.6245,88.904
2976.5886,89.1374
2977.5530,89.3719
2978.5171,89.608
2979.4814,89.845
2980.4456,90.0793
2981.4099,90.3034
2982.3740,90.507
2983.3384,90.6809
2984.3025,90.8234
2985.2668,90.9465
2986.2310,91.0771
2987.1953,91.2495
2988.1594,91.4912
2989.1238,91.8081
2990.0879,92.1783
2991.0522,92.5601
2992.0164,92.9099
2992.9807,93.2007
2993.9448,93.4316
2994.9092,93.6228
2995.8733,93.8018
2996.8376,93.9894
2997.8018,94.1924
2998.7661,94.4065
2999.7302,94.6231
3000.6946,94.8367
3001.6587,95.0469
3002.6230,95.2576
3003.5872,95.4735
3004.5515,95.6979
3005.5156,95.9308
3006.4800,96.1687
3007.4441,96.4058
3008.4084,96.6353
3009.3726,96.8532
3010.3369,97.0592
3011.3010,97.2573
3012.2654,97.4531
3013.2295,97.6494
3014.1938,97.8448
3015.1580,98.0333
3016.1223,98.2084
3017.0864,98.3664
3018.0508,98.508
3019.0149,98.6375
3019.9792,98.7601
3020.9434,98.8789
3021.9077,98.9949
3022.8718,99.1072
3023.8362,99.2149
3024.8003,99.3179
3025.7646,99.4165
3026.7288,99.5103
3027.6931,99.5978
3028.6572,99.677
3029.6216,99.7464
3030.5857,99.8065
3031.5500,99.8592
3032.5142,99.907
3033.4785,99.952
3034.4426,99.9957
3035.4070,100.039
3036.3711,100.082
3037.3354,100.125
3038.2996,100.167
3039.2639,100.203
3040.2280,100.23
3041.1924,100.243
3042.1565,100.24
3043.1208,100.202
3044.0850,100.155
3045.0493,100.11
3046.0134,100.072
3046.9778,100.04
3047.9419,100.008
3048.9063,99.9689
3049.8704,99.916
3050.8347,99.8492
3051.7988,99.7739
3052.7632,99.6985
3053.7273,99.6301
3054.6917,99.5716
3055.6558,99.5211
3056.6201,99.4737
3057.5842,99.4245
3058.5486,99.3703
3059.5127,99.3098
3060.4771,99.2428
3061.4412,99.1692
3062.4055,99.0905
3063.3696,99.0099
3064.3340,98.9322
3065.2981,98.8612
3066.2625,98.7978
3067.2266,98.7387
3068.1909,98.6787
3069.1550,98.6143
3070.1194,98.545
3071.0835,98.4738
3072.0479,98.404
3073.0120,98.3371
3073.9763,98.2712
3074.9404,98.2034
3075.9048,98.1314
3076.8689,98.0552
3077.8333,97.9769
3078.7974,97.8992
3079.7617,97.8237
3080.7258,97.751
3081.6902,97.6805
3082.6543,97.6119
3083.6187,97.5446
3084.5828,97.4779
3085.5471,97.4101
3086.5112,97.3394
3087.4756,97.2645
3088.4397,97.1857
3089.4041,97.1044
3090.3682,97.0225
3091.3325,96.9409
3092.2966,96.8588
3093.2610,96.7739
3094.2251,96.6839
3095.1895,96.5886
3096.1536,96.4899
3097.1179,96.392
3098.0820,96.2985
3099.0464,96.2111
3100.0105,96.1276
3100.9749,96.0442
3101.9390,95.957
3102.9033,95.8652
3103.8674,95.7713
3104.8318,95.6791
3105.7959,95.5913
3106.7603,95.5068
3107.7244,95.4217
3108.6887,95.3314
3109.6528,95.233
3110.6172,95.1271
3111.5813,95.0164
3112.5457,94.9046
3113.5098,94.7939
3114.4741,94.6856
3115.4382,94.5799
3116.4026,94.4772
3117.3667,94.3777
3118.3311,94.2815
3119.2952,94.1875
3120.2595,94.094
3121.2236,93.9994
3122.1880,93.9029
3123.1521,93.8054
3124.1165,93.7084
3125.0806,93.6127
3126.0449,93.5171
3127.0090,93.4185
3127.9734,93.3137
3128.9375,93.2016
3129.9019,93.0848
3130.8660,92.9689
3131.8303,92.8595
3132.7944,92.7596
3133.7588,92.6674
3134.7229,92.578
3135.6873,92.4862
3136.6514,92.3893
3137.6157,92.2877
3138.5798,92.1834
3139.5442,92.0777
3140.5083,91.9703
3141.4727,91.8601
3142.4368,91.7465
3143.4011,91.6303
3144.3652,91.5129
3145.3296,91.3953
3146.2937,91.2779
3147.2581,91.1613
3148.2222,91.0467
3149.1865,90.9359
3150.1506,90.8298
3151.1150,90.7274
3152.0791,90.6253
3153.0435,90.5189
3154.0076,90.4055
3154.9719,90.2849
3155.9360,90.1598
3156.9004,90.0343
3157.8645,89.9116
3158.8289,89.7937
3159.7930,89.6806
3160.7573,89.5705
3161.7214,89.4611
3162.6858,89.35
3163.6499,89.236
3164.6143,89.1202
3165.5784,89.0051
3166.5427,88.8934
3167.5068,88.7859
3168.4712,88.68
3169.4353,88.5935
3170.3997,88.4769
3171.3638,88.351
3172.3281,88.218
3173.2922,88.0834
3174.2566,87.9525
3175.2207,87.8288
3176.1851,87.7129
3177.1492,87.6029
3178.1135,87.4965
3179.0776,87.3914
3180.0420,87.2869
3181.0061,87.1823
3181.9705,87.0772
3182.9346,86.9707
3183.8989,86.8615
3184.8630,86.7482
3185.8274,86.6304
3186.7915,86.5089
3187.7559,86.3856
3188.7200,86.2632
3189.6843,86.1437
3190.6484,86.0278
3191.6128,85.915
3192.5769,85.8038
3193.5413,85.6931
3194.5054,85.5824
3195.4697,85.472
3196.4338,85.3619
3197.3982,85.2517
3198.3623,85.1404
3199.3267,85.0277
3200.2908,84.9149
3201.2551,84.8041
3202.2192,84.6978
3203.1836,84.5964
3204.1477,84.4985
3205.1121,84.4004
3206.0762,84.2989
3207.0405,84.1925
3208.0046,84.0816
3208.9690,83.9679
3209.9331,83.8531
3210.8975,83.7379
3211.8616,83.6231
3212.8259,83.5101
3213.7900,83.4015
3214.7544,83.3003
3215.7185,83.2075
3216.6829,83.1213
3217.6470,83.0372
3218.6113,82.9501
3219.5754,82.8561
3220.5398,82.7544
3221.5039,82.647
3222.4683,82.5374
3223.4324,82.4297
3224.3967,82.3266
3225.3608,82.2293
3226.3252,82.1368
3227.2893,82.0467
3228.2537,81.9559
3229.2178,81.8625
3230.1821,81.7668
3231.1462,81.6724
3232.1106,81.5838
3233.0747,81.5039
3234.0391,81.4323
3235.0032,81.3641
3235.9675,81.2928
3236.9316,81.2128
3237.8960,81.1221
3238.8601,81.0229
3239.8245,80.9201
3240.7886,80.8194
3241.7529,80.7254
3242.7170,80.6408
3243.6814,80.5668
3244.6455,80.5019
3245.6099,80.4428
3246.5740,80.3838
3247.5383,80.3191
3248.5024,80.2451
3249.4668,80.1617
3250.4309,80.0727
3251.3953,79.9842
3252.3594,79.9016
3253.3237,79.8273
3254.2878,79.7605
3255.2522,79.6981
3256.2163,79.6373
3257.1807,79.5766
3258.1448,79.5162
3259.1091,79.4563
3260.0732,79.3968
3261.0376,79.3362
3262.0017,79.2728
3262.9661,79.2049
3263.9302,79.1312
3264.8945,79.0516
3265.8586,78.9671
3266.8230,78.8801
3267.7871,78.7937
3268.7515,78.7114
3269.7156,78.6362
3270.6799,78.5695
3271.6440,78.5114
3272.6084,78.4606
3273.5725,78.415
3274.5369,78.3722
3275.5010,78.3296
3276.4653,78.2853
3277.4294,78.2384
3278.3938,78.1893
3279.3579,78.1389
3280.3223,78.0888
3281.2864,78.0396
3282.2507,77.9918
3283.2148,77.9449
3284.1792,77.898
3285.1433,77.8496
3286.1077,77.7975
3287.0718,77.7391
3288.0361,77.6726
3289.0002,77.5984
3289.9646,77.5198
3290.9287,77.4428
3291.8931,77.3745
3292.8572,77.3201
3293.8215,77.282
3294.7856,77.2579
3295.7500,77.2423
3296.7141,77.2274
3297.6785,77.2053
3298.6426,77.1704
3299.6069,77.1213
3300.5710,77.0608
3301.5354,76.9951
3302.4995,76.9311
3303.4639,76.8744
3304.4280,76.828
3305.3923,76.7933
3306.3564,76.7707
3307.3208,76.7602
3308.2849,76.7606
3309.2493,76.7683
3310.2134,76.7771
3311.1777,76.7799
3312.1418,76.7706
3313.1062,76.7471
3314.0703,76.7113
3315.0347,76.6678
3315.9988,76.6216
3316.9631,76.5764
3317.9272,76.5336
3318.8916,76.4935
3319.8557,76.4568
3320.8201,76.425
3321.7842,76.4005
3322.7485,76.3856
3323.7126,76.3803
3324.6770,76.3824
3325.6411,76.3869
3326.6055,76.3878
3327.5696,76.38
3328.5339,76.3603
3329.4980,76.3286
3330.4624,76.2876
3331.4265,76.2425
3332.3909,76.1999
3333.3550,76.1662
3334.3193,76.146
3335.2834,76.1404
3336.2478,76.1468
3337.2119,76.1598
3338.1763,76.1732
3339.1404,76.1828
3340.1047,76.1868
3341.0688,76.1853
3342.0332,76.1787
3342.9973,76.1665
3343.9617,76.148
3344.9258,76.1239
3345.8901,76.0978
3346.8542,76.0764
3347.8186,76.0679
3348.7827,76.078
3349.7471,76.1075
3350.7112,76.1508
3351.6755,76.1975
3352.6396,76.2361
3353.6040,76.2577
3354.5681,76.2594
3355.5325,76.2448
3356.4966,76.2228
3357.4609,76.203
3358.4250,76.1918
3359.3894,76.1898
3360.3535,76.1925
3361.3179,76.1947
3362.2820,76.1945
3363.2463,76.1958
3364.2104,76.2064
3365.1748,76.2336
3366.1389,76.2786
3367.1033,76.3347
3368.0674,76.3899
3369.0317,76.4326
3369.9958,76.4566
3370.9602,76.4634
3371.9243,76.4604
3372.8887,76.4572
3373.8528,76.4627
3374.8171,76.4818
3375.7813,76.5156
3376.7456,76.5618
3377.7097,76.6157
3378.6741,76.6721
3379.6382,76.7268
3380.6025,76.7763
3381.5667,76.8179
3382.5310,76.8492
3383.4951,76.8675
3384.4595,76.872
3385.4236,76.8658
3386.3879,76.8571
3387.3521,76.8583
3388.3164,76.8813
3389.2805,76.9327
3390.2449,77.0091
3391.2090,77.0983
3392.1733,77.184
3393.1375,77.2537
3394.1018,77.3042
3395.0659,77.3409
3396.0303,77.3728
3396.9944,77.4068
3397.9587,77.4443
3398.9229,77.4837
3399.8872,77.5243
3400.8513,77.5689
3401.8157,77.6228
3402.7798,77.6902
3403.7441,77.77
3404.7083,77.8552
3405.6726,77.9361
3406.6367,78.0038
3407.6011,78.0544
3408.5652,78.0898
3409.5295,78.1165
3410.4937,78.1428
3411.4580,78.1768
3412.4221,78.2237
3413.3865,78.2849
3414.3506,78.3585
3415.3149,78.4407
3416.2791,78.5269
3417.2434,78.6141
3418.2075,78.7
3419.1719,78.7829
3420.1360,78.8608
3421.1003,78.931
3422.0645,78.992
3423.0288,79.045
3423.9929,79.0944
3424.9573,79.1471
3425.9214,79.2104
3426.8857,79.289
3427.8499,79.3826
3428.8142,79.486
3429.7783,79.5913
3430.7427,79.6909
3431.7068,79.7817
3432.6711,79.865
3433.6353,79.9448
3434.5996,80.0237
3435.5637,80.1014
3436.5281,80.1749
3437.4922,80.2421
3438.4565,80.3037
3439.4207,80.3647
3440.3850,80.4314
3441.3491,80.5088
3442.3135,80.5983
3443.2776,80.6987
3444.2419,80.8071
3445.2061,80.9208
3446.1704,81.0363
3447.1345,81.1493
3448.0989,81.2547
3449.0630,81.3493
3450.0273,81.4332
3450.9915,81.5094
3451.9558,81.5827
3452.9199,81.6571
3453.8843,81.7355
3454.8484,81.8193
3455.8127,81.9092
3456.7769,82.0055
3457.7412,82.1077
3458.7053,82.2144
3459.6697,82.3222
3460.6338,82.4264
3461.5981,82.5217
3462.5623,82.605
3463.5266,82.6772
3464.4907,82.7451
3465.4551,82.8189
3466.4192,82.9085
3467.3835,83.0181
3468.3477,83.1433
3469.3120,83.273
3470.2761,83.3956
3471.2405,83.5045
3472.2046,83.6006
3473.1689,83.6904
3474.1331,83.7805
3475.0974,83.8738
3476.0615,83.9695
3477.0259,84.0652
3477.9900,84.1607
3478.9543,84.2582
3479.9185,84.3601
3480.8828,84.4669
3481.8469,84.5761
3482.8113,84.6845
3483.7754,84.7917
3484.7397,84.901
3485.7039,85.0172
3486.6682,85.1431
3487.6323,85.2765
3488.5967,85.4109
3489.5608,85.5379
3490.5251,85.6523
3491.4893,85.7545
3492.4536,85.8505
3493.4177,85.9491
3494.3821,86.0571
3495.3462,86.175
3496.3105,86.2952
3497.2747,86.4069
3498.2390,86.5038
3499.2031,86.5893
3500.1675,86.677
3501.1316,86.7839
3502.0959,86.9205
3503.0601,87.0817
3504.0244,87.2485
3504.9885,87.4015
3505.9529,87.5333
3506.9170,87.6494
3507.8813,87.7615
3508.8455,87.8788
3509.8098,88.0037
3510.7739,88.1325
3511.7383,88.2604
3512.7024,88.3866
3513.6667,88.5147
3514.6309,88.6479
3515.5952,88.7856
3516.5593,88.9226
3517.5237,89.0526
3518.4878,89.1722
3519.4521,89.2824
3520.4163,89.3875
3521.3806,89.4922
3522.3447,89.5995
3523.3091,89.7106
3524.2732,89.8271
3525.2375,89.9522
3526.2017,90.0899
3527.1660,90.2409
3528.1301,90.3995
3529.0945,90.5541
3530.0586,90.6939
3531.0229,90.8159
3531.9871,90.9273
3532.9514,91.041
3533.9155,91.1685
3534.8799,91.3141
3535.8440,91.4713
3536.8083,91.6261
3537.7725,91.7634
3538.7368,91.8757
3539.7009,91.9661
3540.6653,92.0463
3541.6294,92.1327
3542.5938,92.2416
3543.5579,92.3853
3544.5222,92.5645
3545.4863,92.7622
3546.4507,92.9511
3547.4148,93.1102
3548.3792,93.2378
3549.3433,93.3481
3550.3076,93.4602
3551.2717,93.5874
3552.2361,93.7313
3553.2002,93.8824
3554.1646,94.0275
3555.1287,94.1596
3556.0930,94.2804
3557.0571,94.3963
3558.0215,94.5114
3558.9856,94.6248
3559.9500,94.7312
3560.9141,94.8257
3561.8784,94.9073
3562.8425,94.98
3563.8069,95.0516
3564.7710,95.1376
3565.7354,95.2626
3566.6995,95.4422
3567.6638,95.6528
3568.6279,95.8466
3569.5923,95.9976
3570.5564,96.1136
3571.5208,96.2129
3572.4849,96.3067
3573.4492,96.3977
3574.4133,96.4852
3575.3777,96.571
3576.3418,96.6586
3577.3062,96.7498
3578.2703,96.8422
3579.2346,96.9296
3580.1987,97.007
3581.1631,97.0744
3582.1272,97.1379
3583.0916,97.2054
3584.0557,97.2817
3585.0200,97.3693
3585.9841,97.472
3586.9485,97.5895
3587.9126,97.7031
3588.8770,97.7843
3589.8411,97.8238
3590.8054,97.8381
3591.7695,97.8503
3592.7339,97.877
3593.6980,97.9237
3594.6624,97.9862
3595.6265,98.0539
3596.5908,98.118
3597.5549,98.18
3598.5193,98.2496
3599.4834,98.334
3600.4478,98.4287
3601.4119,98.5193
3602.3762,98.5931
3603.3403,98.6504
3604.3047,98.7029
3605.2688,98.7652
3606.2332,98.8482
3607.1973,98.9525
3608.1616,99.0653
3609.1257,99.1652
3610.0901,99.2374
3611.0542,99.2819
3612.0186,99.3099
3612.9829,99.3334
3613.9470,99.3587
3614.9114,99.3873
3615.8755,99.4195
3616.8398,99.457
3617.8040,99.5033
3618.7683,99.5561
3619.7324,99.5986
3620.6968,99.6067
3621.6609,99.5742
3622.6252,99.5232
3623.5894,99.4867
3624.5537,99.4864
3625.5178,99.5234
3626.4822,99.5851
3627.4463,99.6638
3628.4106,99.7585
3629.3748,99.8436
3630.3391,99.88
3631.3032,99.8686
3632.2676,99.841
3633.2317,99.8317
3634.1960,99.852
3635.1602,99.8901
3636.1245,99.9275
3637.0886,99.9515
3638.0530,99.9587
3639.0171,99.9512
3639.9814,99.9307
3640.9456,99.898
3641.9099,99.8559
3642.8740,99.8119
3643.8384,99.7733
3644.8025,99.7398
3645.7668,99.6988
3646.7310,99.643
3647.6953,99.6142
3648.6594,99.6902
3649.6238,99.8447
3650.5879,99.9489
3651.5522,99.9515
3652.5164,99.8956
3653.4807,99.8334
3654.4448,99.7867
3655.4092,99.7512
3656.3733,99.7132
3657.3376,99.6634
3658.3018,99.6055
3659.2661,99.5539
3660.2302,99.5227
3661.1946,99.514
3662.1587,99.5175
3663.1230,99.5202
3664.0872,99.5172
3665.0515,99.5127
3666.0156,99.5112
3666.9800,99.509
3667.9441,99.4995
3668.9084,99.4847
3669.8726,99.4713
3670.8369,99.4573
3671.8010,99.4378
3672.7654,99.4154
3673.7295,99.4002
3674.6938,99.4116
3675.6580,99.4641
3676.6223,99.5337
3677.5864,99.5767
3678.5508,99.5805
3679.5149,99.5618
3680.4792,99.5368
3681.4434,99.5096
3682.4077,99.4807
3683.3718,99.4547
3684.3362,99.4386
3685.3003,99.4312
3686.2646,99.4162
3687.2288,99.3752
3688.1931,99.3174
3689.1572,99.2863
3690.1216,99.3061
3691.0857,99.3524
3692.0500,99.3956
3693.0142,99.4276
3693.9785,99.452
3694.9426,99.4733
3695.9070,99.4956
3696.8711,99.5237
3697.8354,99.5624
3698.7996,99.6132
3699.7639,99.6721
3700.7280,99.7309
3701.6924,99.7785
3702.6565,99.8052
3703.6208,99.8089
3704.5850,99.7987
3705.5493,99.7877
3706.5134,99.7838
3707.4778,99.7867
3708.4419,99.7984
3709.4063,99.8411
3710.3704,99.9508
3711.3347,100.121
3712.2988,100.277
3713.2632,100.351
3714.2273,100.339
3715.1917,100.277
3716.1558,100.202
3717.1201,100.131
3718.0842,100.068
3719.0486,100.009
3720.0127,99.9503
3720.9771,99.8937
3721.9412,99.8482
3722.9055,99.824
3723.8696,99.8256
3724.8340,99.8457
3725.7981,99.8667
3726.7625,99.8735
3727.7266,99.8638
3728.6909,99.8458
3729.6550,99.8278
3730.6194,99.809
3731.5835,99.7825
3732.5479,99.75
3733.5120,99.7399
3734.4763,99.7919
3735.4404,99.8971
3736.4048,99.986
3737.3689,100.01
3738.3333,99.9866
3739.2974,99.9695
3740.2617,99.9986
3741.2258,100.095
3742.1902,100.199
3743.1543,100.253
3744.1187,100.218
3745.0828,100.104
3746.0471,99.9561
3747.0112,99.8244
3747.9756,99.7429
3748.9397,99.7269
3749.9041,99.7813
3750.8682,99.8822
3751.8325,99.9576
3752.7966,99.9498
3753.7610,99.873
3754.7251,99.7779
3755.6895,99.7027
3756.6536,99.6622
3757.6179,99.657
3758.5820,99.6805
3759.5464,99.7177
3760.5105,99.7513
3761.4749,99.7731
3762.4390,99.7854
3763.4033,99.7929
3764.3674,99.7974
3765.3318,99.7984
3766.2959,99.7959
3767.2603,99.7927
3768.2244,99.7934
3769.1887,99.8006
3770.1528,99.8109
3771.1172,99.8154
3772.0813,99.8075
3773.0457,99.7904
3774.0098,99.7741
3774.9741,99.7671
3775.9382,99.7706
3776.9026,99.7796
3777.8667,99.7884
3778.8311,99.7917
3779.7952,99.7836
3780.7595,99.76
3781.7236,99.7244
3782.6880,99.6873
3783.6521,99.6613
3784.6165,99.6564
3785.5806,99.6752
3786.5449,99.7105
3787.5090,99.7495
3788.4734,99.7805
3789.4375,99.7983
3790.4019,99.8041
3791.3660,99.8016
3792.3303,99.7919
3793.2944,99.7723
3794.2588,99.7408
3795.2229,99.7006
3796.1873,99.6607
3797.1514,99.6301
3798.1157,99.6108
3799.0798,99.5986
3800.0442,99.5906
3801.0083,99.5899
3801.9727,99.6
3802.9368,99.6215
3803.9011,99.6578
3804.8652,99.7134
3805.8296,99.7811
3806.7937,99.8375
3807.7581,99.8541
3808.7222,99.8211
3809.6865,99.7604
3810.6506,99.7101
3811.6150,99.6961
3812.5791,99.7155
3813.5435,99.7403
3814.5076,99.7389
3815.4719,99.7001
3816.4360,99.6393
3817.4004,99.5848
3818.3645,99.5608
3819.3289,99.5779
3820.2930,99.6253
3821.2573,99.6692
3822.2214,99.6728
3823.1858,99.6296
3824.1499,99.5665
3825.1143,99.5179
3826.0784,99.5036
3827.0427,99.5229
3828.0068,99.5608
3828.9712,99.5996
3829.9353,99.6293
3830.8997,99.6498
3831.8638,99.6676
3832.8281,99.6871
3833.7922,99.7053
3834.7566,99.7104
3835.7207,99.6887
3836.6851,99.6375
3837.6492,99.5742
3838.6135,99.5267
3839.5776,99.5135
3840.5420,99.5351
3841.5061,99.5827
3842.4705,99.6412
3843.4346,99.6896
3844.3989,99.7059
3845.3630,99.6808
3846.3274,99.6269
3847.2915,99.5755
3848.2559,99.5608
3849.2200,99.603
3850.1843,99.6961
3851.1484,99.8109
3852.1128,99.9202
3853.0769,100.007
3854.0413,100.027
3855.0054,99.9429
3855.9697,99.7945
3856.9338,99.6581
3857.8982,99.5808
3858.8623,99.5671
3859.8267,99.5917
3860.7908,99.6195
3861.7551,99.6281
3862.7192,99.6218
3863.6836,99.6207
3864.6477,99.6365
3865.6121,99.6633
3866.5762,99.6868
3867.5405,99.6942
3868.5046,99.6816
3869.4690,99.6594
3870.4331,99.6471
3871.3975,99.6566
3872.3616,99.6809
3873.3259,99.7038
3874.2900,99.7151
3875.2544,99.7151
3876.2185,99.7078
3877.1829,99.6947
3878.1470,99.6732
3879.1113,99.6433
3880.0754,99.6132
3881.0398,99.5968
3882.0039,99.6047
3882.9683,99.638
3883.9324,99.6864
3884.8967,99.7314
3885.8608,99.7543
3886.8252,99.7479
3887.7893,99.7207
3888.7537,99.6892
3889.7178,99.668
3890.6821,99.6645
3891.6462,99.6763
3892.6106,99.6898
3893.5747,99.6909
3894.5391,99.6791
3895.5032,99.6634
3896.4675,99.648
3897.4316,99.629
3898.3960,99.6024
3899.3601,99.5738
3900.3245,99.5557
3901.2886,99.5578
3902.2529,99.5815
3903.2170,99.6196
3904.1814,99.6576
3905.1455,99.6809
3906.1099,99.6846
3907.0740,99.6756
3908.0383,99.6645
3909.0024,99.6569
3909.9668,99.653
3910.9309,99.6501
3911.8953,99.6469
3912.8594,99.6448
3913.8237,99.6461
3914.7878,99.6526
3915.7522,99.665
3916.7163,99.6814
3917.6807,99.6952
3918.6448,99.6962
3919.6091,99.6769
3920.5732,99.6389
3921.5376,99.5913
3922.5017,99.5464
3923.4661,99.5151
3924.4302,99.5016
3925.3945,99.5009
3926.3586,99.5023
3927.3230,99.4982
3928.2871,99.4876
3929.2515,99.476
3930.2156,99.4738
3931.1799,99.4909
3932.1440,99.5287
3933.1084,99.5764
3934.0725,99.6185
3935.0369,99.6449
3936.0010,99.6529
3936.9653,99.6445
3937.9294,99.6233
3938.8938,99.5937
3939.8579,99.5626
3940.8223,99.5391
3941.7864,99.5312
3942.7507,99.5406
3943.7148,99.5605
3944.6792,99.5796
3945.6433,99.5884
3946.6077,99.5826
3947.5718,99.5649
3948.5361,99.5434
3949.5002,99.5282
3950.4646,99.526
3951.4287,99.5368
3952.3931,99.556
3953.3572,99.5764
3954.3215,99.5909
3955.2856,99.5945
3956.2500,99.5867
3957.2141,99.5714
3958.1785,99.556
3959.1426,99.5477
3960.1069,99.5507
3961.0710,99.5649
3962.0354,99.5854
3962.9995,99.6053
3963.9639,99.6183
3964.9280,99.6207
3965.8923,99.612
3966.8564,99.5936
3967.8208,99.5683
3968.7849,99.54
3969.7493,99.5135
3970.7134,99.4933
3971.6777,99.4834
3972.6418,99.4848
3973.6062,99.496
3974.5703,99.5124
3975.5347,99.5289
3976.4988,99.5413
3977.4631,99.548
3978.4272,99.5495
3979.3916,99.5466
3980.3557,99.5397
3981.3201,99.5285
3982.2842,99.513
3983.2485,99.4952
3984.2126,99.4796
3985.1770,99.4715
3986.1411,99.4747
3987.1055,99.4883
3988.0696,99.5062
3989.0339,99.519
3989.9980,99.5189
3990.9624,99.5049
3991.9265,99.4832
3992.8909,99.4639
3993.8550,99.4549
3994.8193,99.4578
3995.7834,99.4668
3996.7478,99.4739
3997.7119,99.4736
3998.6763,99.4663
3999.6404,99.4566
4000.6047,99.3731

##### Extended Information
[Comments]
Sample name
Comment
User
Division
Company,HANKYONG

[Detailed Information]
Creation date,4/24/2024 10:30 AM

Data array type,Linear data array
Horizontal axis,Wavenumber [cm-1]
Vertical axis,%T
Start,649.893 cm-1
End,4000.6 cm-1
Data interval,0.964233 cm-1
Data points,3476    

[Measurement Information]
Model Name,FT/IR-4700typeA
Serial Number,D056761788

Accessory,ATR PRO ONE
Accessory S/N,C174761809
Incident angle,45 deg

Measurement Date,4/24/2024 10:28 AM

Light Source,Standard
Detector,TGS
Accumulation,32
Resolution,4 cm-1
Zero Filling,On
Apodization,Cosine
Gain,Auto (4)
Aperture,Auto (7.1 mm)
Scanning Speed,Auto (2 mm/sec)
Filter,Auto (30000 Hz)

