TITLE,
DATA TYPE,INFRARED SPECTRUM
ORIGIN,JASCO
OWNER,
DATE,24/04/24
TIME,11:07:40
SPECTROMETER/DATA SYSTEM,
LOCALE,1033
RESOLUTION,
DELTAX,0.964233
XUNITS,1/CM
YUNITS,TRANSMITTANCE
FIRSTX,  649.8934
LASTX, 4000.6047
NPOINTS,    3476
FIRSTY,   100.44896
MAXY,   101.17942
MINY,    46.31775
XYDATA
649.8934,100.449
650.8576,100.4
651.8218,100.343
652.7861,100.281
653.7503,100.227
654.7145,99.9964
655.6788,99.7713
656.6430,99.5785
657.6072,99.4054
658.5715,99.2406
659.5357,99.0783
660.4999,98.9142
661.4642,98.7362
662.4284,98.5212
663.3926,98.2377
664.3569,97.8502
665.3211,97.3218
666.2853,96.6348
667.2496,95.8616
668.2138,95.2405
669.1780,95.0122
670.1423,95.1145
671.1065,95.3077
672.0707,95.4464
673.0350,95.5017
673.9992,95.493
674.9634,95.4505
675.9277,95.4036
676.8919,95.3802
677.8561,95.4074
678.8204,95.5101
679.7846,95.7032
680.7488,95.9818
681.7131,96.3177
682.6773,96.6703
683.6415,97.0074
684.6058,97.3174
685.5700,97.6023
686.5342,97.8579
687.4985,98.0602
688.4627,98.1714
689.4269,98.1604
690.3912,98.0257
691.3554,97.8164
692.3196,97.6419
693.2839,97.639
694.2481,97.8683
695.2123,98.2496
696.1766,98.6396
697.1408,98.9372
698.1050,99.1101
699.0693,99.1745
700.0335,99.1685
700.9977,99.1308
701.9620,99.0863
702.9262,99.0445
703.8904,99.0055
704.8547,98.9671
705.8189,98.9272
706.7831,98.8829
707.7474,98.8313
708.7116,98.7709
709.6758,98.7036
710.6401,98.6332
711.6043,98.5613
712.5685,98.5305
713.5328,98.5225
714.4970,98.4874
715.4612,98.6684
716.4255,98.5345
717.3897,98.3727
718.3539,98.2096
719.3182,98.0815
720.2824,98.0207
721.2466,98.0392
722.2109,98.1211
723.1751,98.23
724.1393,98.3284
725.1036,98.3926
726.0678,98.4215
727.0320,98.4328
727.9963,98.4518
728.9605,98.4976
729.9247,98.5738
730.8890,98.669
731.8532,98.7656
732.8174,98.8504
733.7817,98.9197
734.7459,98.9774
735.7101,99.0277
736.6744,99.0687
737.6386,99.0913
738.6028,99.0853
739.5671,99.0474
740.5313,98.9855
741.4955,98.9162
742.4598,98.8562
743.4240,98.8137
744.3882,98.7853
745.3525,98.7602
746.3167,98.7286
747.2809,98.6881
748.2452,98.6444
749.2094,98.6056
750.1736,98.5756
751.1379,98.5508
752.1021,98.5224
753.0663,98.4833
754.0306,98.4328
754.9948,98.3774
755.9590,98.3257
756.9233,98.2823
757.8875,98.2445
758.8517,98.2054
759.8160,98.1588
760.7802,98.1046
761.7444,98.0485
762.7087,97.9979
763.6729,97.9568
764.6371,97.9235
765.6014,97.8932
766.5656,97.863
767.5298,97.8343
768.4941,97.8127
769.4583,97.8026
770.4225,97.8035
771.3868,97.8079
772.3510,97.803
773.3152,97.7759
774.2795,97.7178
775.2437,97.6278
776.2079,97.5143
777.1722,97.3927
778.1364,97.2816
779.1006,97.1951
780.0649,97.1373
781.0291,97.0996
781.9933,97.0638
782.9576,97.0108
783.9218,96.93
784.8860,96.8241
785.8503,96.7079
786.8145,96.5997
787.7787,96.5126
788.7430,96.4486
789.7072,96.3988
790.6714,96.3493
791.6357,96.2876
792.5999,96.2076
793.5641,96.1109
794.5284,96.0043
795.4926,95.8954
796.4568,95.79
797.4211,95.6899
798.3853,95.594
799.3495,95.4991
800.3138,95.4001
801.2780,95.29
802.2422,95.1604
803.2065,95.0037
804.1707,94.8169
805.1349,94.6047
806.0992,94.3784
807.0634,94.1513
808.0276,93.9313
808.9919,93.7175
809.9561,93.5023
810.9203,93.2778
811.8846,93.043
812.8488,92.8059
813.8130,92.5798
814.7773,92.3772
815.7415,92.2044
816.7057,92.0621
817.6700,91.948
818.6342,91.8605
819.5984,91.7994
820.5627,91.7648
821.5269,91.7544
822.4911,91.7636
823.4554,91.7856
824.4196,91.813
825.3839,91.8385
826.3481,91.8545
827.3123,91.853
828.2766,91.8262
829.2408,91.7663
830.2050,91.6658
831.1693,91.5173
832.1335,91.3143
833.0977,91.0532
834.0620,90.7356
835.0262,90.3697
835.9904,89.9691
836.9547,89.5487
837.9189,89.1206
838.8831,88.6906
839.8474,88.2587
840.8116,87.8221
841.7758,87.38
842.7401,86.9379
843.7043,86.5098
844.6685,86.1162
845.6328,85.7792
846.5970,85.5151
847.5612,85.3289
848.5255,85.2127
849.4897,85.1493
850.4539,85.1203
851.4182,85.1123
852.3824,85.1197
853.3466,85.1417
854.3109,85.1776
855.2751,85.2226
856.2393,85.2691
857.2036,85.3108
858.1678,85.3469
859.1320,85.3836
860.0963,85.4317
861.0605,85.5018
862.0247,85.6017
862.9890,85.7357
863.9532,85.9064
864.9174,86.1154
865.8817,86.3632
866.8459,86.6474
867.8101,86.9629
868.7744,87.3045
869.7386,87.6696
870.7028,88.0583
871.6671,88.4698
872.6313,88.8959
873.5955,89.3174
874.5598,89.707
875.5240,90.0392
876.4882,90.3014
877.4525,90.4997
878.4167,90.6544
879.3809,90.7897
880.3452,90.9215
881.3094,91.0519
882.2736,91.1725
883.2379,91.2712
884.2021,91.3395
885.1663,91.3745
886.1306,91.3773
887.0948,91.3508
888.0590,91.2984
889.0233,91.225
889.9875,91.1375
890.9517,91.0438
891.9160,90.9496
892.8802,90.8562
893.8444,90.7599
894.8087,90.6537
895.7729,90.5305
896.7371,90.3847
897.7014,90.2138
898.6656,90.0182
899.6298,89.8006
900.5941,89.5662
901.5583,89.3219
902.5225,89.0758
903.4868,88.8364
904.4510,88.6109
905.4152,88.4037
906.3795,88.2143
907.3437,88.0376
908.3079,87.8659
909.2722,87.6929
910.2364,87.5178
911.2006,87.3472
912.1649,87.1923
913.1291,87.0638
914.0933,86.9669
915.0576,86.9002
916.0218,86.8584
916.9860,86.8371
917.9503,86.8353
918.9145,86.8558
919.8787,86.903
920.8430,86.981
921.8072,87.0941
922.7714,87.2472
923.7357,87.4462
924.6999,87.6959
925.6641,87.9984
926.6284,88.352
927.5926,88.7537
928.5568,89.2032
929.5211,89.7058
930.4853,90.2724
931.4495,90.9156
932.4138,91.6453
933.3780,92.464
934.3422,93.3639
935.3065,94.3268
936.2707,95.3245
937.2349,96.3209
938.1992,97.2768
939.1634,98.1554
940.1276,98.9291
941.0919,99.5829
942.0561,100.114
943.0203,100.528
943.9846,100.834
944.9488,101.039
945.9130,101.152
946.8773,101.179
947.8415,101.133
948.8057,101.027
949.7700,100.873
950.7342,100.683
951.6984,100.461
952.6627,100.23
953.6269,100.032
954.5911,99.8032
955.5554,99.5397
956.5196,99.2363
957.4838,98.8867
958.4481,98.4846
959.4123,98.0274
960.3765,97.516
961.3408,96.9555
962.3050,96.3527
963.2692,95.7165
964.2335,95.0572
965.1977,94.3871
966.1619,93.7188
967.1262,93.0635
968.0904,92.4282
969.0546,91.8159
970.0189,91.2285
970.9831,90.6692
971.9473,90.1438
972.9116,89.6596
973.8758,89.2213
974.8400,88.8278
975.8043,88.4713
976.7685,88.1388
977.7327,87.8144
978.6970,87.4819
979.6612,87.1261
980.6254,86.7346
981.5897,86.2984
982.5539,85.813
983.5181,85.2791
984.4824,84.7023
985.4466,84.0933
986.4108,83.4682
987.3751,82.8476
988.3393,82.2551
989.3035,81.7147
990.2678,81.2477
991.2320,80.8694
992.1962,80.5876
993.1605,80.4021
994.1247,80.3051
995.0889,80.2829
996.0532,80.3184
997.0174,80.3928
997.9816,80.4878
998.9459,80.5864
999.9101,80.6719
1000.8743,80.7263
1001.8386,80.7295
1002.8028,80.6586
1003.7670,80.4903
1004.7313,80.2035
1005.6955,79.7825
1006.6597,79.2185
1007.6240,78.509
1008.5882,77.6563
1009.5524,76.6644
1010.5167,75.5393
1011.4809,74.2886
1012.4451,72.924
1013.4094,71.4617
1014.3736,69.9213
1015.3378,68.3237
1016.3021,66.69
1017.2663,65.0417
1018.2305,63.4002
1019.1948,61.7849
1020.1590,60.2074
1021.1232,58.6672
1022.0875,57.1542
1023.0517,55.6587
1024.0160,54.1865
1024.9802,52.7684
1025.9445,51.4561
1026.9087,50.304
1027.8729,49.3464
1028.8372,48.5832
1029.8014,47.9823
1030.7656,47.4984
1031.7299,47.0949
1032.6941,46.7586
1033.6583,46.5011
1034.6226,46.3466
1035.5868,46.3178
1036.5510,46.4231
1037.5153,46.6532
1038.4795,46.9836
1039.4437,47.3832
1040.4080,47.8237
1041.3722,48.2874
1042.3364,48.7707
1043.3007,49.281
1044.2649,49.8301
1045.2291,50.4265
1046.1934,51.0715
1047.1576,51.7611
1048.1218,52.4911
1049.0861,53.2603
1050.0503,54.0703
1051.0145,54.92
1051.9788,55.8017
1052.9430,56.7015
1053.9072,57.6066
1054.8715,58.5162
1055.8357,59.4461
1056.7999,60.4212
1057.7642,61.4561
1058.7284,62.5336
1059.6926,63.5949
1060.6569,64.5549
1061.6211,65.3385
1062.5853,65.9207
1063.5496,66.3471
1064.5138,66.7186
1065.4780,67.1438
1066.4423,67.6846
1067.4065,68.3254
1068.3707,68.9828
1069.3350,69.5499
1070.2992,69.9482
1071.2634,70.1581
1072.2277,70.2154
1073.1919,70.1819
1074.1561,70.112
1075.1204,70.0347
1076.0846,69.9548
1077.0488,69.8664
1078.0131,69.7655
1078.9773,69.6541
1079.9415,69.5378
1080.9058,69.4217
1081.8700,69.3082
1082.8342,69.1975
1083.7985,69.089
1084.7627,68.9829
1085.7269,68.883
1086.6912,68.7981
1087.6554,68.7422
1088.6196,68.7291
1089.5839,68.7648
1090.5481,68.8398
1091.5123,68.9284
1092.4766,68.9967
1093.4408,69.0148
1094.4050,68.9671
1095.3693,68.8549
1096.3335,68.6913
1097.2977,68.4923
1098.2620,68.2698
1099.2262,68.0292
1100.1904,67.7715
1101.1547,67.4963
1102.1189,67.2049
1103.0831,66.9022
1104.0474,66.5978
1105.0116,66.3073
1105.9758,66.0507
1106.9401,65.851
1107.9043,65.7307
1108.8685,65.7095
1109.8328,65.8041
1110.7970,66.0286
1111.7612,66.3956
1112.7255,66.9153
1113.6897,67.5933
1114.6539,68.4287
1115.6182,69.4146
1116.5824,70.5396
1117.5466,71.7912
1118.5109,73.1567
1119.4751,74.6236
1120.4393,76.1767
1121.4036,77.7972
1122.3678,79.4626
1123.3320,81.1485
1124.2963,82.8316
1125.2605,84.4911
1126.2247,86.1099
1127.1890,87.673
1128.1532,89.1672
1129.1174,90.5802
1130.0817,91.9009
1131.0459,93.12
1132.0101,94.2313
1132.9744,95.2316
1133.9386,96.1207
1134.9028,96.9004
1135.8671,97.573
1136.8313,98.1408
1137.7955,98.6059
1138.7598,98.9715
1139.7240,99.2425
1140.6882,99.4257
1141.6525,99.529
1142.6167,99.5599
1143.5809,99.5262
1144.5452,99.4364
1145.5094,99.3022
1146.4736,99.1387
1147.4379,98.9641
1148.4021,98.7856
1149.3663,98.5755
1150.3306,98.3994
1151.2948,98.2616
1152.2590,98.1618
1153.2233,98.0959
1154.1875,98.0574
1155.1517,98.0388
1156.1160,98.0317
1157.0802,98.0265
1158.0444,98.0121
1159.0087,97.9761
1159.9729,97.9057
1160.9371,97.7899
1161.9014,97.6219
1162.8656,97.4005
1163.8298,97.1296
1164.7941,96.8163
1165.7583,96.4682
1166.7225,96.0911
1167.6868,95.6883
1168.6510,95.2609
1169.6152,94.8087
1170.5795,94.331
1171.5437,93.8275
1172.5079,93.2982
1173.4722,92.7439
1174.4364,92.1656
1175.4006,91.5639
1176.3649,90.94
1177.3291,90.296
1178.2933,89.6359
1179.2576,88.9658
1180.2218,88.293
1181.1860,87.6247
1182.1503,86.967
1183.1145,86.3249
1184.0787,85.7028
1185.0430,85.1049
1186.0072,84.5343
1186.9714,83.9912
1187.9357,83.473
1188.8999,82.9745
1189.8641,82.4915
1190.8284,82.0218
1191.7926,81.5659
1192.7568,81.1254
1193.7211,80.7015
1194.6853,80.2932
1195.6495,79.8981
1196.6138,79.513
1197.5780,79.1341
1198.5422,78.7578
1199.5065,78.4225
1200.4707,78.038
1201.4349,77.6518
1202.3992,77.2685
1203.3634,76.8954
1204.3276,76.5406
1205.2919,76.2105
1206.2561,75.9085
1207.2203,75.6349
1208.1846,75.3887
1209.1488,75.1692
1210.1130,74.9779
1211.0773,74.8176
1212.0415,74.6914
1213.0057,74.6014
1213.9700,74.548
1214.9342,74.531
1215.8984,74.55
1216.8627,74.6049
1217.8269,74.6949
1218.7911,74.8171
1219.7554,74.9662
1220.7196,75.1356
1221.6838,75.3195
1222.6481,75.513
1223.6123,75.712
1224.5765,75.912
1225.5408,76.1074
1226.5050,76.2922
1227.4692,76.4607
1228.4335,76.6087
1229.3977,76.7338
1230.3619,76.8371
1231.3262,76.9248
1232.2904,77.0102
1233.2546,77.1107
1234.2189,77.2412
1235.1831,77.4063
1236.1473,77.5971
1237.1116,77.7963
1238.0758,77.9909
1239.0400,78.1835
1240.0043,78.393
1240.9685,78.6428
1241.9327,78.9431
1242.8970,79.2784
1243.8612,79.6107
1244.8254,79.8972
1245.7897,80.1113
1246.7539,80.2538
1247.7181,80.3486
1248.6824,80.427
1249.6466,80.511
1250.6108,80.6058
1251.5751,80.7017
1252.5393,80.7826
1253.5035,80.8347
1254.4678,80.8513
1255.4320,80.8331
1256.3962,80.786
1257.3605,80.7182
1258.3247,80.6373
1259.2889,80.549
1260.2532,80.4558
1261.2174,80.3571
1262.1816,80.251
1263.1459,80.1358
1264.1101,80.0112
1265.0743,79.8792
1266.0386,79.7443
1267.0028,79.6133
1267.9670,79.4957
1268.9313,79.4021
1269.8955,79.3427
1270.8597,79.3247
1271.8240,79.351
1272.7882,79.4204
1273.7524,79.5296
1274.7167,79.675
1275.6809,79.8535
1276.6451,80.0618
1277.6094,80.2961
1278.5736,80.5515
1279.5378,80.8225
1280.5021,81.104
1281.4663,81.3912
1282.4305,81.68
1283.3948,81.9664
1284.3590,82.2473
1285.3232,82.5203
1286.2875,82.7848
1287.2517,83.0406
1288.2159,83.2876
1289.1802,83.5243
1290.1444,83.7484
1291.1086,83.9574
1292.0729,84.1502
1293.0371,84.3279
1294.0013,84.493
1294.9656,84.6489
1295.9298,84.7976
1296.8940,84.9393
1297.8583,85.0713
1298.8225,85.1896
1299.7867,85.29
1300.7510,85.3698
1301.7152,85.4285
1302.6794,85.4676
1303.6437,85.4898
1304.6079,85.4966
1305.5721,85.4872
1306.5364,85.4593
1307.5006,85.4097
1308.4648,85.3374
1309.4291,85.2441
1310.3933,85.1348
1311.3575,85.0159
1312.3218,84.8932
1313.2860,84.7698
1314.2502,84.646
1315.2145,84.521
1316.1787,84.3954
1317.1429,84.273
1318.1072,84.1592
1319.0714,84.0582
1320.0356,83.9693
1320.9999,83.8875
1321.9641,83.8076
1322.9283,83.728
1323.8926,83.6526
1324.8568,83.5883
1325.8210,83.5422
1326.7853,83.5194
1327.7495,83.5232
1328.7137,83.5569
1329.6780,83.6253
1330.6422,83.7322
1331.6064,83.8757
1332.5707,84.0449
1333.5349,84.222
1334.4991,84.3904
1335.4634,84.5438
1336.4276,84.6925
1337.3918,84.8632
1338.3561,85.0867
1339.3203,85.3731
1340.2845,85.695
1341.2488,86.0035
1342.2130,86.2613
1343.1772,86.4582
1344.1415,86.6028
1345.1057,86.7093
1346.0699,86.7897
1347.0342,86.8522
1347.9984,86.9012
1348.9626,86.9372
1349.9269,86.958
1350.8911,86.9608
1351.8553,86.9448
1352.8196,86.9131
1353.7838,86.8712
1354.7480,86.8238
1355.7123,86.7714
1356.6765,86.7095
1357.6407,86.6323
1358.6050,86.5364
1359.5692,86.4236
1360.5334,86.3043
1361.4977,86.1977
1362.4619,86.1192
1363.4261,86.0635
1364.3904,86.0074
1365.3546,85.9316
1366.3188,85.8317
1367.2831,85.7145
1368.2473,85.5886
1369.2115,85.4599
1370.1758,85.3292
1371.1400,85.195
1372.1042,85.0585
1373.0685,84.9298
1374.0327,84.8252
1374.9969,84.7549
1375.9612,84.7121
1376.9254,84.6815
1377.8896,84.6549
1378.8539,84.6357
1379.8181,84.632
1380.7823,84.6481
1381.7466,84.6812
1382.7108,84.7276
1383.6750,84.7893
1384.6393,84.8753
1385.6035,84.9932
1386.5677,85.1308
1387.5320,85.2397
1388.4962,85.2534
1389.4604,85.1348
1390.4247,84.899
1391.3889,84.5958
1392.3531,84.2892
1393.3174,84.0494
1394.2816,83.9387
1395.2458,83.9764
1396.2101,84.1098
1397.1743,84.2374
1398.1385,84.2739
1399.1028,84.1917
1400.0670,84.0127
1401.0313,83.7765
1401.9955,83.5165
1402.9597,83.2537
1403.9240,83.0012
1404.8882,82.7699
1405.8524,82.5678
1406.8167,82.3945
1407.7809,82.2437
1408.7451,82.1094
1409.7094,81.9877
1410.6736,81.8736
1411.6378,81.759
1412.6021,81.6353
1413.5663,81.4996
1414.5305,81.3543
1415.4948,81.201
1416.4590,81.0376
1417.4232,80.8656
1418.3875,80.6957
1419.3517,80.5283
1420.3159,80.3434
1421.2802,80.1312
1422.2444,79.9101
1423.2086,79.7102
1424.1729,79.5524
1425.1371,79.4435
1426.1013,79.3838
1427.0656,79.3789
1428.0298,79.4431
1428.9940,79.5895
1429.9583,79.8106
1430.9225,80.074
1431.8867,80.3454
1432.8510,80.6165
1433.8152,80.9039
1434.7794,81.2266
1435.7437,81.5765
1436.7079,81.8907
1437.6721,82.071
1438.6364,82.0642
1439.6006,81.8998
1440.5648,81.6417
1441.5291,81.3353
1442.4933,80.9955
1443.4575,80.6184
1444.4218,80.1958
1445.3860,79.7243
1446.3502,79.2097
1447.3145,78.6705
1448.2787,78.1363
1449.2429,77.6375
1450.2072,77.1955
1451.1714,76.8236
1452.1356,76.5295
1453.0999,76.3107
1454.0641,76.1451
1455.0283,76.0016
1455.9926,75.8964
1456.9568,75.9221
1457.9210,76.0723
1458.8853,76.173
1459.8495,76.1498
1460.8137,76.08
1461.7780,76.0715
1462.7422,76.2169
1463.7064,76.5926
1464.6707,77.2184
1465.6349,77.9969
1466.5991,78.7684
1467.5634,79.4528
1468.5276,80.0853
1469.4918,80.7524
1470.4561,81.5429
1471.4203,82.5331
1472.3845,83.7426
1473.3488,85.0388
1474.3130,86.1733
1475.2772,87.0057
1476.2415,87.5735
1477.2057,87.973
1478.1699,88.2749
1479.1342,88.5171
1480.0984,88.7199
1481.0626,88.8935
1482.0269,89.0385
1482.9911,89.147
1483.9553,89.2095
1484.9196,89.2196
1485.8838,89.1732
1486.8480,89.0728
1487.8123,88.9481
1488.7765,88.8639
1489.7407,88.8518
1490.7050,88.8528
1491.6692,88.7959
1492.6334,88.6707
1493.5977,88.4988
1494.5619,88.2911
1495.5261,88.0464
1496.4904,87.7802
1497.4546,87.5336
1498.4188,87.3242
1499.3831,87.1228
1500.3473,86.9126
1501.3115,86.7201
1502.2758,86.5788
1503.2400,86.4782
1504.2042,86.3217
1505.1685,85.9084
1506.1327,85.0603
1507.0969,83.9666
1508.0612,83.0782
1509.0254,82.4495
1509.9896,81.8971
1510.9539,81.3465
1511.9181,80.8127
1512.8823,80.3443
1513.8466,80.0163
1514.8108,79.9187
1515.7750,80.1148
1516.7393,80.6011
1517.7035,81.3359
1518.6677,82.3229
1519.6320,83.6373
1520.5962,85.3133
1521.5604,87.19
1522.5247,88.9614
1523.4889,90.4364
1524.4531,91.6635
1525.4174,92.7956
1526.3816,93.9057
1527.3458,94.9369
1528.3101,95.7952
1529.2743,96.451
1530.2385,96.9563
1531.2028,97.402
1532.1670,97.8639
1533.1312,98.3503
1534.0955,98.7921
1535.0597,99.1226
1536.0239,99.3465
1536.9882,99.499
1537.9524,99.5662
1538.9166,99.4767
1539.8809,99.2475
1540.8451,99.1367
1541.8093,99.3131
1542.7736,99.6248
1543.7378,99.8686
1544.7020,100.024
1545.6663,100.107
1546.6305,100.131
1547.5947,100.112
1548.5590,100.07
1549.5232,100.022
1550.4874,99.9699
1551.4517,99.9037
1552.4159,99.8204
1553.3801,99.7384
1554.3444,99.6886
1555.3086,99.682
1556.2728,99.6857
1557.2371,99.6636
1558.2013,99.6905
1559.1655,99.809
1560.1298,99.7763
1561.0940,99.4699
1562.0582,99.0318
1563.0225,98.6181
1563.9867,98.2989
1564.9509,98.0739
1565.9152,97.9026
1566.8794,97.7283
1567.8436,97.5052
1568.8079,97.2252
1569.7721,96.9163
1570.7363,96.6125
1571.7006,96.3343
1572.6648,96.079
1573.6290,95.809
1574.5933,95.4597
1575.5575,95.0007
1576.5217,94.494
1577.4860,94.026
1578.4502,93.6082
1579.4144,93.21
1580.3787,92.811
1581.3429,92.3999
1582.3071,91.9701
1583.2714,91.5247
1584.2356,91.0764
1585.1998,90.6368
1586.1641,90.2103
1587.1283,89.7974
1588.0925,89.4015
1589.0568,89.0284
1590.0210,88.6816
1590.9852,88.3585
1591.9495,88.0536
1592.9137,87.7649
1593.8779,87.4964
1594.8422,87.2536
1595.8064,87.0362
1596.7706,86.8363
1597.7349,86.6435
1598.6991,86.4522
1599.6633,86.2656
1600.6276,86.0942
1601.5918,85.9505
1602.5560,85.8419
1603.5203,85.7656
1604.4845,85.7102
1605.4487,85.6654
1606.4130,85.6315
1607.3772,85.6228
1608.3414,85.6598
1609.3057,85.751
1610.2699,85.8825
1611.2341,86.0335
1612.1984,86.2007
1613.1626,86.4068
1614.1268,86.6986
1615.0911,87.1382
1616.0553,87.751
1617.0195,88.4328
1617.9838,88.9988
1618.9480,89.3752
1619.9122,89.6367
1620.8765,89.8962
1621.8407,90.2232
1622.8049,90.6198
1623.7692,91.0293
1624.7334,91.3815
1625.6976,91.6504
1626.6619,91.8597
1627.6261,92.0407
1628.5903,92.1999
1629.5546,92.3288
1630.5188,92.4309
1631.4830,92.5242
1632.4473,92.6146
1633.4115,92.6732
1634.3757,92.6629
1635.3400,92.6126
1636.3042,92.6009
1637.2684,92.6164
1638.2327,92.5895
1639.1969,92.5125
1640.1611,92.4243
1641.1254,92.3604
1642.0896,92.3324
1643.0538,92.3197
1644.0181,92.2657
1644.9823,92.1062
1645.9465,91.8483
1646.9108,91.605
1647.8750,91.4796
1648.8392,91.4899
1649.8035,91.6139
1650.7677,91.7959
1651.7319,91.9324
1652.6962,91.9509
1653.6604,91.8828
1654.6246,91.7091
1655.5889,91.3967
1656.5531,91.0384
1657.5173,90.7433
1658.4816,90.5506
1659.4458,90.4355
1660.4100,90.346
1661.3743,90.2463
1662.3385,90.1352
1663.3027,90.0237
1664.2670,89.9144
1665.2312,89.8071
1666.1954,89.6957
1667.1597,89.5609
1668.1239,89.3866
1669.0881,89.1956
1670.0524,89.0455
1671.0166,88.966
1671.9808,88.9394
1672.9451,88.9377
1673.9093,88.9335
1674.8735,88.8894
1675.8378,88.7635
1676.8020,88.5404
1677.7662,88.2558
1678.7305,87.9799
1679.6947,87.772
1680.6589,87.6427
1681.6232,87.5452
1682.5874,87.4117
1683.5516,87.2265
1684.5159,87.0171
1685.4801,86.7616
1686.4443,86.4331
1687.4086,86.0612
1688.3728,85.6962
1689.3370,85.3735
1690.3013,85.108
1691.2655,84.8929
1692.2297,84.6984
1693.1940,84.4735
1694.1582,84.1627
1695.1224,83.7424
1696.0867,83.26
1697.0509,82.8299
1698.0151,82.5492
1698.9794,82.3938
1699.9436,82.2301
1700.9078,81.9505
1701.8721,81.5617
1702.8363,81.1489
1703.8005,80.7997
1704.7648,80.5637
1705.7290,80.4446
1706.6932,80.4087
1707.6575,80.4049
1708.6217,80.397
1709.5859,80.3791
1710.5502,80.3651
1711.5144,80.3683
1712.4786,80.3919
1713.4429,80.4343
1714.4071,80.5122
1715.3713,80.6957
1716.3356,81.0903
1717.2998,81.6796
1718.2640,82.2451
1719.2283,82.6079
1720.1925,82.7924
1721.1567,82.9191
1722.1210,83.0845
1723.0852,83.3242
1724.0494,83.6213
1725.0137,83.9324
1725.9779,84.2177
1726.9421,84.4618
1727.9064,84.6753
1728.8706,84.8836
1729.8348,85.1161
1730.7991,85.4045
1731.7633,85.7878
1732.7275,86.2948
1733.6918,86.8708
1734.6560,87.3571
1735.6202,87.6451
1736.5845,87.7841
1737.5487,87.8984
1738.5129,88.0821
1739.4772,88.3617
1740.4414,88.7023
1741.4056,89.0393
1742.3699,89.3248
1743.3341,89.5548
1744.2983,89.7574
1745.2626,89.9631
1746.2268,90.1927
1747.1910,90.4673
1748.1553,90.82
1749.1195,91.2735
1750.0837,91.7844
1751.0480,92.2439
1752.0122,92.5697
1752.9764,92.7677
1753.9407,92.8997
1754.9049,93.0269
1755.8691,93.1799
1756.8334,93.3589
1757.7976,93.5491
1758.7618,93.7415
1759.7261,93.9409
1760.6903,94.1572
1761.6545,94.3873
1762.6188,94.6094
1763.5830,94.8001
1764.5472,94.9548
1765.5115,95.0875
1766.4757,95.2134
1767.4399,95.3344
1768.4042,95.4418
1769.3684,95.5325
1770.3326,95.6316
1771.2969,95.7918
1772.2611,96.0436
1773.2253,96.341
1774.1896,96.6003
1775.1538,96.7862
1776.1180,96.9259
1777.0823,97.0646
1778.0465,97.2294
1779.0107,97.4219
1779.9750,97.6273
1780.9392,97.8296
1781.9034,98.0202
1782.8677,98.1972
1783.8319,98.3559
1784.7961,98.4853
1785.7604,98.5758
1786.7246,98.6314
1787.6888,98.6692
1788.6531,98.7065
1789.6173,98.7479
1790.5815,98.7906
1791.5458,98.8396
1792.5100,98.9004
1793.4742,98.9567
1794.4385,98.9866
1795.4027,98.9964
1796.3669,99.012
1797.3312,99.0522
1798.2954,99.118
1799.2596,99.1999
1800.2239,99.2876
1801.1881,99.3718
1802.1523,99.4428
1803.1166,99.4946
1804.0808,99.5276
1805.0450,99.5462
1806.0093,99.554
1806.9735,99.5532
1807.9377,99.5469
1808.9020,99.5432
1809.8662,99.5543
1810.8304,99.5876
1811.7947,99.6382
1812.7589,99.6926
1813.7231,99.7399
1814.6874,99.7764
1815.6516,99.8026
1816.6158,99.8195
1817.5801,99.8271
1818.5443,99.8262
1819.5085,99.8195
1820.4728,99.8123
1821.4370,99.8091
1822.4012,99.8104
1823.3655,99.8202
1824.3297,99.8312
1825.2939,99.827
1826.2582,99.8058
1827.2224,99.7761
1828.1866,99.7576
1829.1509,99.7717
1830.1151,99.8224
1831.0793,99.8857
1832.0436,99.9294
1833.0078,99.9426
1833.9720,99.937
1834.9363,99.9286
1835.9005,99.9262
1836.8647,99.9307
1837.8290,99.9403
1838.7932,99.9557
1839.7574,99.9811
1840.7217,100.017
1841.6859,100.053
1842.6501,100.072
1843.6144,100.072
1844.5786,100.063
1845.5428,100.052
1846.5071,100.039
1847.4713,100.033
1848.4355,100.043
1849.3998,100.071
1850.3640,100.109
1851.3282,100.144
1852.2925,100.165
1853.2567,100.172
1854.2209,100.17
1855.1852,100.164
1856.1494,100.157
1857.1136,100.15
1858.0779,100.146
1859.0421,100.147
1860.0063,100.152
1860.9706,100.155
1861.9348,100.147
1862.8990,100.121
1863.8633,100.076
1864.8275,100.017
1865.7917,99.9529
1866.7560,99.9035
1867.7202,99.8996
1868.6844,99.9601
1869.6487,100.061
1870.6129,100.152
1871.5771,100.204
1872.5414,100.221
1873.5056,100.222
1874.4698,100.219
1875.4341,100.219
1876.3983,100.22
1877.3625,100.223
1878.3268,100.225
1879.2910,100.227
1880.2552,100.228
1881.2195,100.224
1882.1837,100.215
1883.1479,100.201
1884.1122,100.183
1885.0764,100.167
1886.0406,100.155
1887.0049,100.148
1887.9691,100.148
1888.9333,100.151
1889.8976,100.153
1890.8618,100.149
1891.8260,100.134
1892.7903,100.116
1893.7545,100.103
1894.7188,100.102
1895.6830,100.117
1896.6472,100.141
1897.6115,100.164
1898.5757,100.176
1899.5399,100.176
1900.5042,100.167
1901.4684,100.154
1902.4326,100.14
1903.3969,100.124
1904.3611,100.105
1905.3253,100.078
1906.2896,100.046
1907.2538,100.015
1908.2180,99.9958
1909.1823,99.9957
1910.1465,100.013
1911.1107,100.036
1912.0750,100.056
1913.0392,100.066
1914.0034,100.071
1914.9677,100.073
1915.9319,100.073
1916.8961,100.07
1917.8604,100.056
1918.8246,100.027
1919.7888,99.9848
1920.7531,99.9409
1921.7173,99.9113
1922.6815,99.9078
1923.6458,99.93
1924.6100,99.9656
1925.5742,99.9984
1926.5385,100.018
1927.5027,100.024
1928.4669,100.021
1929.4312,100.012
1930.3954,100.002
1931.3596,99.9939
1932.3239,99.9886
1933.2881,99.9877
1934.2523,99.9908
1935.2166,99.9951
1936.1808,99.9961
1937.1450,99.9897
1938.1093,99.9742
1939.0735,99.9503
1940.0377,99.9211
1941.0020,99.8922
1941.9662,99.8716
1942.9304,99.8653
1943.8947,99.8728
1944.8589,99.8893
1945.8231,99.9102
1946.7874,99.9335
1947.7516,99.9574
1948.7158,99.9786
1949.6801,99.9931
1950.6443,99.9986
1951.6085,99.9962
1952.5728,99.9903
1953.5370,99.9858
1954.5012,99.9865
1955.4655,99.9925
1956.4297,100.002
1957.3939,100.011
1958.3582,100.018
1959.3224,100.02
1960.2866,100.019
1961.2509,100.011
1962.2151,99.9986
1963.1793,99.9816
1964.1436,99.9638
1965.1078,99.951
1966.0720,99.9495
1967.0363,99.9628
1968.0005,99.9882
1968.9647,100.018
1969.9290,100.044
1970.8932,100.063
1971.8574,100.074
1972.8217,100.079
1973.7859,100.082
1974.7501,100.084
1975.7144,100.085
1976.6786,100.085
1977.6428,100.085
1978.6071,100.085
1979.5713,100.085
1980.5355,100.086
1981.4998,100.087
1982.4640,100.086
1983.4282,100.083
1984.3925,100.077
1985.3567,100.067
1986.3209,100.054
1987.2852,100.041
1988.2494,100.029
1989.2136,100.02
1990.1779,100.017
1991.1421,100.023
1992.1063,100.035
1993.0706,100.052
1994.0348,100.068
1994.9990,100.077
1995.9633,100.08
1996.9275,100.078
1997.8917,100.073
1998.8560,100.07
1999.8202,100.07
2000.7844,100.073
2001.7487,100.076
2002.7129,100.077
2003.6771,100.075
2004.6414,100.07
2005.6056,100.063
2006.5698,100.056
2007.5341,100.051
2008.4983,100.05
2009.4625,100.05
2010.4268,100.05
2011.3910,100.045
2012.3552,100.035
2013.3195,100.017
2014.2837,99.994
2015.2479,99.9725
2016.2122,99.958
2017.1764,99.9547
2018.1406,99.9621
2019.1049,99.9753
2020.0691,99.9881
2021.0333,99.9959
2021.9976,99.9977
2022.9618,99.9946
2023.9260,99.9891
2024.8903,99.9835
2025.8545,99.979
2026.8187,99.976
2027.7830,99.9736
2028.7472,99.9709
2029.7114,99.9673
2030.6757,99.9622
2031.6399,99.9559
2032.6041,99.9497
2033.5684,99.9447
2034.5326,99.9414
2035.4968,99.9387
2036.4611,99.9346
2037.4253,99.9271
2038.3895,99.9154
2039.3538,99.9012
2040.3180,99.8878
2041.2822,99.8787
2042.2465,99.8751
2043.2107,99.8759
2044.1749,99.8782
2045.1392,99.879
2046.1034,99.8769
2047.0676,99.872
2048.0320,99.8657
2048.9961,99.8592
2049.9604,99.8538
2050.9246,99.8497
2051.8889,99.8463
2052.8530,99.843
2053.8174,99.8387
2054.7815,99.8335
2055.7458,99.8275
2056.7100,99.8214
2057.6743,99.8154
2058.6384,99.8086
2059.6028,99.7997
2060.5669,99.788
2061.5313,99.7743
2062.4954,99.7617
2063.4597,99.7543
2064.4238,99.7552
2065.3882,99.7645
2066.3523,99.7785
2067.3167,99.7921
2068.2808,99.8008
2069.2451,99.8031
2070.2092,99.8004
2071.1736,99.7953
2072.1377,99.7906
2073.1021,99.7878
2074.0662,99.7867
2075.0305,99.7867
2075.9946,99.7869
2076.9590,99.7869
2077.9231,99.7863
2078.8875,99.7852
2079.8516,99.7838
2080.8159,99.7827
2081.7800,99.7823
2082.7444,99.7831
2083.7085,99.785
2084.6729,99.7875
2085.6370,99.7898
2086.6013,99.791
2087.5654,99.7907
2088.5298,99.789
2089.4939,99.7865
2090.4583,99.784
2091.4224,99.782
2092.3867,99.7812
2093.3508,99.7815
2094.3152,99.7832
2095.2793,99.7857
2096.2437,99.7885
2097.2078,99.7903
2098.1721,99.79
2099.1362,99.7867
2100.1006,99.78
2101.0647,99.7736
2102.0291,99.7687
2102.9932,99.7673
2103.9575,99.7697
2104.9216,99.7744
2105.8860,99.7789
2106.8501,99.7812
2107.8145,99.7803
2108.7786,99.7766
2109.7429,99.7709
2110.7070,99.7641
2111.6714,99.7567
2112.6355,99.7498
2113.5999,99.7449
2114.5640,99.7436
2115.5283,99.7467
2116.4924,99.7531
2117.4568,99.76
2118.4209,99.7643
2119.3853,99.7638
2120.3494,99.7587
2121.3137,99.7507
2122.2778,99.7421
2123.2422,99.7346
2124.2063,99.7289
2125.1707,99.7252
2126.1348,99.7239
2127.0991,99.7257
2128.0632,99.7309
2129.0276,99.7388
2129.9917,99.7475
2130.9561,99.7541
2131.9202,99.7565
2132.8845,99.7544
2133.8486,99.7492
2134.8130,99.7441
2135.7771,99.7421
2136.7415,99.7446
2137.7056,99.7513
2138.6699,99.76
2139.6340,99.7685
2140.5984,99.7751
2141.5625,99.7799
2142.5269,99.7837
2143.4910,99.7877
2144.4553,99.7924
2145.4194,99.7974
2146.3838,99.8016
2147.3479,99.8045
2148.3123,99.8061
2149.2764,99.8071
2150.2407,99.8083
2151.2048,99.81
2152.1692,99.812
2153.1333,99.8138
2154.0977,99.8153
2155.0618,99.8171
2156.0261,99.8198
2156.9902,99.8237
2157.9546,99.8288
2158.9187,99.8341
2159.8831,99.8389
2160.8472,99.8431
2161.8115,99.8472
2162.7756,99.8517
2163.7400,99.8567
2164.7041,99.8614
2165.6685,99.8648
2166.6326,99.8659
2167.5969,99.8648
2168.5610,99.8626
2169.5254,99.861
2170.4895,99.8614
2171.4539,99.8641
2172.4180,99.8685
2173.3823,99.8732
2174.3464,99.877
2175.3108,99.8796
2176.2749,99.8815
2177.2393,99.8835
2178.2034,99.8862
2179.1677,99.8891
2180.1318,99.8912
2181.0962,99.8915
2182.0603,99.89
2183.0247,99.8876
2183.9888,99.8859
2184.9531,99.8864
2185.9172,99.8891
2186.8816,99.8934
2187.8457,99.8978
2188.8101,99.9013
2189.7742,99.9035
2190.7385,99.9046
2191.7026,99.9051
2192.6670,99.9053
2193.6311,99.9056
2194.5955,99.9059
2195.5596,99.9062
2196.5239,99.9059
2197.4880,99.9043
2198.4524,99.9007
2199.4165,99.8953
2200.3809,99.889
2201.3450,99.8837
2202.3093,99.881
2203.2734,99.8811
2204.2378,99.8835
2205.2019,99.8865
2206.1663,99.8889
2207.1304,99.8903
2208.0947,99.8911
2209.0588,99.8914
2210.0232,99.891
2210.9873,99.8891
2211.9517,99.885
2212.9158,99.8792
2213.8801,99.8728
2214.8442,99.8678
2215.8086,99.8652
2216.7727,99.8648
2217.7371,99.8648
2218.7012,99.8631
2219.6655,99.8583
2220.6296,99.8507
2221.5940,99.842
2222.5581,99.8346
2223.5225,99.8301
2224.4866,99.8289
2225.4509,99.8297
2226.4150,99.8303
2227.3794,99.829
2228.3435,99.8247
2229.3079,99.817
2230.2720,99.8065
2231.2363,99.7943
2232.2004,99.782
2233.1648,99.7715
2234.1289,99.7642
2235.0933,99.7607
2236.0574,99.7602
2237.0217,99.7607
2237.9858,99.7602
2238.9502,99.7571
2239.9143,99.751
2240.8787,99.7424
2241.8428,99.7323
2242.8071,99.7213
2243.7712,99.7098
2244.7356,99.6977
2245.6997,99.6855
2246.6641,99.6737
2247.6282,99.663
2248.5925,99.6537
2249.5566,99.6451
2250.5210,99.6363
2251.4851,99.6262
2252.4495,99.6146
2253.4136,99.6024
2254.3779,99.5904
2255.3420,99.5791
2256.3064,99.5682
2257.2705,99.5564
2258.2349,99.5428
2259.1990,99.5273
2260.1633,99.5113
2261.1274,99.497
2262.0918,99.4865
2263.0559,99.4806
2264.0203,99.479
2264.9844,99.4798
2265.9487,99.4802
2266.9128,99.4777
2267.8772,99.4704
2268.8413,99.4583
2269.8057,99.4429
2270.7698,99.4272
2271.7341,99.4142
2272.6982,99.4059
2273.6626,99.4026
2274.6267,99.403
2275.5911,99.4055
2276.5552,99.4091
2277.5195,99.4137
2278.4836,99.4193
2279.4480,99.4259
2280.4121,99.432
2281.3765,99.4357
2282.3406,99.4342
2283.3049,99.4256
2284.2690,99.4089
2285.2334,99.3841
2286.1975,99.353
2287.1619,99.3184
2288.1260,99.2835
2289.0903,99.2504
2290.0544,99.2202
2291.0188,99.1928
2291.9829,99.1677
2292.9473,99.1451
2293.9114,99.1261
2294.8757,99.1115
2295.8398,99.1023
2296.8042,99.0987
2297.7683,99.1012
2298.7327,99.1112
2299.6968,99.1306
2300.6611,99.16
2301.6252,99.1975
2302.5896,99.238
2303.5537,99.2737
2304.5181,99.2976
2305.4822,99.3066
2306.4465,99.3039
2307.4106,99.2994
2308.3750,99.306
2309.3391,99.3339
2310.3035,99.3857
2311.2676,99.4544
2312.2319,99.5264
2313.1960,99.5888
2314.1604,99.6359
2315.1245,99.6718
2316.0889,99.7075
2317.0530,99.7539
2318.0173,99.8149
2318.9814,99.8823
2319.9458,99.9346
2320.9099,99.9419
2321.8743,99.8786
2322.8384,99.7387
2323.8027,99.5448
2324.7668,99.3436
2325.7312,99.1877
2326.6953,99.1138
2327.6597,99.1269
2328.6238,99.1971
2329.5881,99.271
2330.5522,99.2966
2331.5166,99.2477
2332.4807,99.1352
2333.4451,98.9953
2334.4092,98.8669
2335.3735,98.7721
2336.3376,98.7102
2337.3020,98.6626
2338.2661,98.6064
2339.2305,98.528
2340.1946,98.4376
2341.1589,98.3791
2342.1230,98.4234
2343.0874,98.614
2344.0515,98.881
2345.0159,99.0543
2345.9800,99.0232
2346.9443,98.834
2347.9084,98.6228
2348.8728,98.506
2349.8369,98.5229
2350.8013,98.6286
2351.7654,98.7245
2352.7297,98.7206
2353.6938,98.6038
2354.6582,98.4392
2355.6223,98.2896
2356.5867,98.1686
2357.5508,98.0491
2358.5151,97.9258
2359.4792,97.8283
2360.4436,97.7784
2361.4077,97.7778
2362.3721,97.8287
2363.3362,97.9474
2364.3005,98.1488
2365.2646,98.4247
2366.2290,98.7427
2367.1931,99.0652
2368.1575,99.3647
2369.1216,99.6271
2370.0859,99.8464
2371.0500,100.02
2372.0144,100.148
2372.9785,100.228
2373.9429,100.261
2374.9070,100.246
2375.8713,100.184
2376.8354,100.081
2377.7998,99.9494
2378.7639,99.8046
2379.7283,99.6632
2380.6924,99.5394
2381.6567,99.4428
2382.6208,99.3776
2383.5852,99.342
2384.5493,99.3305
2385.5137,99.3352
2386.4778,99.3481
2387.4421,99.363
2388.4063,99.376
2389.3706,99.3859
2390.3347,99.3934
2391.2991,99.4
2392.2632,99.4071
2393.2275,99.4154
2394.1917,99.4248
2395.1560,99.4347
2396.1201,99.4449
2397.0845,99.4553
2398.0486,99.4657
2399.0129,99.4759
2399.9771,99.4849
2400.9414,99.4918
2401.9055,99.4958
2402.8699,99.4974
2403.8340,99.4983
2404.7983,99.5004
2405.7625,99.5048
2406.7268,99.5114
2407.6909,99.5188
2408.6553,99.5254
2409.6194,99.5302
2410.5837,99.5338
2411.5479,99.5372
2412.5122,99.5414
2413.4763,99.5466
2414.4407,99.5524
2415.4048,99.5581
2416.3691,99.5638
2417.3333,99.5698
2418.2976,99.5764
2419.2617,99.5833
2420.2261,99.5892
2421.1902,99.5927
2422.1545,99.5936
2423.1187,99.5927
2424.0830,99.5922
2425.0471,99.5942
2426.0115,99.5997
2426.9756,99.6081
2427.9399,99.6177
2428.9041,99.6267
2429.8684,99.634
2430.8325,99.6394
2431.7969,99.6433
2432.7610,99.6466
2433.7253,99.6496
2434.6895,99.6525
2435.6538,99.6553
2436.6179,99.6584
2437.5823,99.6625
2438.5464,99.6687
2439.5107,99.6776
2440.4749,99.6889
2441.4392,99.7011
2442.4033,99.7117
2443.3677,99.7189
2444.3318,99.7221
2445.2961,99.7221
2446.2603,99.7204
2447.2246,99.7186
2448.1887,99.7169
2449.1531,99.7155
2450.1172,99.7147
2451.0815,99.7153
2452.0457,99.7188
2453.0100,99.7254
2453.9741,99.7338
2454.9385,99.7415
2455.9026,99.7462
2456.8669,99.7469
2457.8311,99.7451
2458.7954,99.743
2459.7595,99.7422
2460.7239,99.7429
2461.6880,99.744
2462.6523,99.7446
2463.6165,99.7449
2464.5808,99.746
2465.5449,99.749
2466.5093,99.7536
2467.4734,99.7583
2468.4377,99.761
2469.4019,99.7606
2470.3662,99.758
2471.3303,99.7555
2472.2947,99.7558
2473.2588,99.7602
2474.2231,99.7683
2475.1873,99.7776
2476.1516,99.7856
2477.1157,99.7906
2478.0801,99.7923
2479.0442,99.7922
2480.0085,99.7921
2480.9727,99.7932
2481.9370,99.7957
2482.9011,99.7988
2483.8655,99.8013
2484.8296,99.8028
2485.7939,99.8038
2486.7581,99.8049
2487.7224,99.8068
2488.6865,99.8092
2489.6509,99.8114
2490.6150,99.8125
2491.5793,99.8124
2492.5435,99.8119
2493.5078,99.8126
2494.4719,99.8161
2495.4363,99.8234
2496.4004,99.8341
2497.3647,99.8464
2498.3289,99.8574
2499.2932,99.8645
2500.2573,99.8666
2501.2217,99.8646
2502.1858,99.8615
2503.1501,99.861
2504.1143,99.8653
2505.0786,99.8745
2506.0427,99.886
2507.0071,99.8961
2507.9712,99.9021
2508.9355,99.9027
2509.8997,99.8993
2510.8640,99.8944
2511.8281,99.891
2512.7925,99.8914
2513.7566,99.8974
2514.7209,99.9091
2515.6851,99.9252
2516.6494,99.9425
2517.6135,99.957
2518.5779,99.9657
2519.5420,99.9677
2520.5063,99.9655
2521.4705,99.9635
2522.4348,99.9655
2523.3989,99.973
2524.3633,99.984
2525.3274,99.9948
2526.2917,100.002
2527.2559,100.006
2528.2202,100.007
2529.1843,100.008
2530.1487,100.01
2531.1128,100.014
2532.0771,100.017
2533.0413,100.02
2534.0056,100.022
2534.9697,100.025
2535.9341,100.029
2536.8982,100.035
2537.8625,100.044
2538.8267,100.054
2539.7910,100.063
2540.7551,100.069
2541.7195,100.073
2542.6836,100.075
2543.6479,100.078
2544.6121,100.083
2545.5764,100.091
2546.5405,100.102
2547.5049,100.113
2548.4690,100.122
2549.4333,100.128
2550.3975,100.132
2551.3618,100.136
2552.3259,100.141
2553.2903,100.149
2554.2544,100.158
2555.2188,100.166
2556.1829,100.172
2557.1472,100.178
2558.1113,100.184
2559.0757,100.192
2560.0398,100.201
2561.0042,100.21
2561.9683,100.217
2562.9326,100.221
2563.8967,100.223
2564.8611,100.225
2565.8252,100.23
2566.7896,100.239
2567.7537,100.249
2568.7180,100.26
2569.6821,100.267
2570.6465,100.27
2571.6106,100.268
2572.5750,100.266
2573.5391,100.264
2574.5034,100.266
2575.4675,100.27
2576.4319,100.275
2577.3960,100.281
2578.3604,100.286
2579.3245,100.29
2580.2888,100.296
2581.2529,100.304
2582.2173,100.314
2583.1814,100.324
2584.1458,100.331
2585.1099,100.333
2586.0742,100.332
2587.0383,100.327
2588.0027,100.321
2588.9668,100.315
2589.9312,100.309
2590.8953,100.305
2591.8596,100.303
2592.8237,100.303
2593.7881,100.304
2594.7522,100.306
2595.7166,100.308
2596.6807,100.31
2597.6450,100.312
2598.6091,100.314
2599.5735,100.315
2600.5376,100.316
2601.5020,100.315
2602.4661,100.314
2603.4304,100.313
2604.3945,100.315
2605.3589,100.319
2606.3230,100.326
2607.2874,100.335
2608.2515,100.343
2609.2158,100.348
2610.1799,100.351
2611.1443,100.349
2612.1084,100.345
2613.0728,100.34
2614.0369,100.336
2615.0012,100.333
2615.9653,100.332
2616.9297,100.334
2617.8938,100.337
2618.8582,100.341
2619.8223,100.346
2620.7866,100.351
2621.7507,100.354
2622.7151,100.356
2623.6792,100.356
2624.6436,100.353
2625.6077,100.35
2626.5720,100.348
2627.5361,100.348
2628.5005,100.35
2629.4646,100.353
2630.4290,100.356
2631.3931,100.357
2632.3574,100.357
2633.3215,100.356
2634.2859,100.356
2635.2500,100.355
2636.2144,100.354
2637.1785,100.353
2638.1428,100.353
2639.1069,100.355
2640.0713,100.361
2641.0354,100.369
2641.9998,100.378
2642.9639,100.384
2643.9282,100.386
2644.8923,100.385
2645.8567,100.383
2646.8208,100.384
2647.7852,100.388
2648.7493,100.393
2649.7136,100.398
2650.6777,100.402
2651.6421,100.405
2652.6062,100.409
2653.5706,100.418
2654.5347,100.43
2655.4990,100.446
2656.4631,100.462
2657.4275,100.477
2658.3916,100.489
2659.3560,100.496
2660.3201,100.5
2661.2844,100.502
2662.2485,100.505
2663.2129,100.512
2664.1770,100.523
2665.1414,100.538
2666.1055,100.555
2667.0698,100.572
2668.0339,100.587
2668.9983,100.599
2669.9624,100.609
2670.9268,100.62
2671.8909,100.635
2672.8552,100.652
2673.8193,100.672
2674.7837,100.692
2675.7478,100.711
2676.7122,100.724
2677.6763,100.732
2678.6406,100.734
2679.6047,100.731
2680.5691,100.727
2681.5332,100.723
2682.4976,100.724
2683.4617,100.728
2684.4260,100.737
2685.3901,100.745
2686.3545,100.752
2687.3186,100.755
2688.2830,100.753
2689.2471,100.749
2690.2114,100.746
2691.1755,100.745
2692.1399,100.75
2693.1040,100.759
2694.0684,100.772
2695.0325,100.784
2695.9968,100.792
2696.9609,100.795
2697.9253,100.793
2698.8894,100.789
2699.8538,100.785
2700.8179,100.782
2701.7822,100.78
2702.7463,100.777
2703.7107,100.773
2704.6748,100.767
2705.6392,100.76
2706.6033,100.752
2707.5676,100.743
2708.5317,100.734
2709.4961,100.725
2710.4602,100.717
2711.4246,100.712
2712.3887,100.708
2713.3530,100.702
2714.3171,100.693
2715.2815,100.68
2716.2456,100.666
2717.2100,100.653
2718.1741,100.644
2719.1384,100.639
2720.1025,100.637
2721.0669,100.636
2722.0310,100.634
2722.9954,100.629
2723.9595,100.62
2724.9238,100.607
2725.8879,100.59
2726.8523,100.57
2727.8164,100.551
2728.7808,100.534
2729.7449,100.522
2730.7092,100.516
2731.6733,100.513
2732.6377,100.513
2733.6018,100.51
2734.5662,100.503
2735.5303,100.492
2736.4946,100.476
2737.4587,100.46
2738.4231,100.446
2739.3872,100.436
2740.3516,100.43
2741.3157,100.425
2742.2800,100.422
2743.2441,100.42
2744.2085,100.421
2745.1726,100.424
2746.1370,100.429
2747.1011,100.432
2748.0654,100.431
2749.0295,100.423
2749.9939,100.41
2750.9580,100.397
2751.9224,100.387
2752.8865,100.381
2753.8508,100.379
2754.8149,100.376
2755.7793,100.368
2756.7434,100.353
2757.7078,100.332
2758.6719,100.308
2759.6362,100.285
2760.6003,100.267
2761.5647,100.256
2762.5288,100.25
2763.4932,100.246
2764.4573,100.24
2765.4216,100.23
2766.3857,100.217
2767.3501,100.203
2768.3142,100.19
2769.2786,100.179
2770.2427,100.169
2771.2070,100.156
2772.1711,100.136
2773.1355,100.107
2774.0996,100.07
2775.0640,100.031
2776.0281,99.9952
2776.9924,99.9645
2777.9565,99.9386
2778.9209,99.913
2779.8850,99.8826
2780.8494,99.8439
2781.8135,99.7976
2782.7778,99.7469
2783.7419,99.6956
2784.7063,99.6505
2785.6704,99.6125
2786.6348,99.5797
2787.5989,99.5475
2788.5632,99.5117
2789.5273,99.4697
2790.4917,99.4213
2791.4558,99.3687
2792.4202,99.3147
2793.3843,99.2616
2794.3486,99.2103
2795.3127,99.1597
2796.2771,99.108
2797.2412,99.0533
2798.2056,98.9948
2799.1697,98.9323
2800.1340,98.8664
2801.0981,98.798
2802.0625,98.7281
2803.0266,98.6581
2803.9910,98.5894
2804.9551,98.523
2805.9194,98.4584
2806.8835,98.393
2807.8479,98.3231
2808.8120,98.245
2809.7764,98.1566
2810.7405,98.0582
2811.7048,97.9519
2812.6689,97.8407
2813.6333,97.7268
2814.5974,97.6111
2815.5618,97.4928
2816.5259,97.3699
2817.4902,97.2403
2818.4543,97.1024
2819.4187,96.9553
2820.3828,96.7989
2821.3472,96.6332
2822.3113,96.4576
2823.2756,96.271
2824.2397,96.0717
2825.2041,95.8587
2826.1682,95.6318
2827.1326,95.392
2828.0967,95.141
2829.0610,94.8801
2830.0251,94.6102
2830.9895,94.3317
2831.9536,94.0446
2832.9180,93.7498
2833.8821,93.4485
2834.8464,93.1425
2835.8105,92.8334
2836.7749,92.523
2837.7390,92.2134
2838.7034,91.9072
2839.6675,91.6065
2840.6318,91.3123
2841.5959,91.0231
2842.5603,90.7351
2843.5244,90.4441
2844.4888,90.149
2845.4529,89.854
2846.4172,89.5689
2847.3813,89.3064
2848.3457,89.0763
2849.3098,88.8818
2850.2742,88.7175
2851.2383,88.5721
2852.2026,88.4336
2853.1667,88.2939
2854.1311,88.1505
2855.0952,88.0046
2856.0596,87.8581
2857.0237,87.7102
2857.9880,87.5569
2858.9521,87.3927
2859.9165,87.2133
2860.8806,87.0173
2861.8450,86.8074
2862.8091,86.5888
2863.7734,86.3682
2864.7375,86.1513
2865.7019,85.942
2866.6660,85.7417
2867.6304,85.5496
2868.5945,85.3639
2869.5588,85.1827
2870.5229,85.0053
2871.4873,84.8314
2872.4514,84.6614
2873.4158,84.4951
2874.3799,84.3323
2875.3442,84.172
2876.3083,84.0134
2877.2727,83.856
2878.2368,83.6996
2879.2012,83.5461
2880.1653,83.3997
2881.1296,83.2676
2882.0938,83.1581
2883.0581,83.0794
2884.0222,83.036
2884.9866,83.0276
2885.9507,83.0476
2886.9150,83.0844
2887.8792,83.1237
2888.8435,83.1528
2889.8076,83.1658
2890.7720,83.1668
2891.7361,83.1672
2892.7004,83.1772
2893.6646,83.1951
2894.6289,83.2019
2895.5930,83.1675
2896.5574,83.0673
2897.5215,82.9007
2898.4858,82.6976
2899.4500,82.5088
2900.4143,82.3824
2901.3784,82.3407
2902.3428,82.3709
2903.3069,82.4346
2904.2712,82.4872
2905.2354,82.4976
2906.1997,82.4551
2907.1638,82.3658
2908.1282,82.2422
2909.0923,82.0969
2910.0566,81.9398
2911.0208,81.7791
2911.9851,81.6221
2912.9492,81.4739
2913.9136,81.3354
2914.8777,81.2038
2915.8420,81.075
2916.8062,80.9455
2917.7705,80.8142
2918.7346,80.6816
2919.6990,80.5489
2920.6631,80.417
2921.6274,80.2879
2922.5916,80.1637
2923.5559,80.0466
2924.5200,79.9371
2925.4844,79.8345
2926.4485,79.7377
2927.4128,79.6475
2928.3770,79.5669
2929.3413,79.5005
2930.3054,79.4516
2931.2698,79.4219
2932.2339,79.4113
2933.1982,79.4207
2934.1624,79.4534
2935.1267,79.5143
2936.0908,79.6076
2937.0552,79.7337
2938.0193,79.8879
2938.9836,80.0632
2939.9478,80.2537
2940.9121,80.4583
2941.8762,80.6803
2942.8406,80.9243
2943.8047,81.1913
2944.7690,81.4755
2945.7332,81.7646
2946.6975,82.0446
2947.6616,82.3043
2948.6260,82.539
2949.5901,82.7508
2950.5544,82.9454
2951.5186,83.1291
2952.4829,83.3059
2953.4470,83.4774
2954.4114,83.6441
2955.3755,83.8064
2956.3398,83.9659
2957.3040,84.1248
2958.2683,84.2845
2959.2324,84.4448
2960.1968,84.6025
2961.1609,84.7526
2962.1252,84.8901
2963.0894,85.0122
2964.0537,85.1197
2965.0178,85.2161
2965.9822,85.3068
2966.9463,85.3974
2967.9106,85.494
2968.8748,85.604
2969.8391,85.7356
2970.8032,85.8964
2971.7676,86.0904
2972.7317,86.315
2973.6960,86.5622
2974.6602,86.8213
2975.6245,87.0829
2976.5886,87.3416
2977.5530,87.5955
2978.5171,87.8447
2979.4814,88.0877
2980.4456,88.3201
2981.4099,88.5321
2982.3740,88.7111
2983.3384,88.8455
2984.3025,88.9345
2985.2668,88.9962
2986.2310,89.0703
2987.1953,89.208
2988.1594,89.4511
2989.1238,89.8108
2990.0879,90.2577
2991.0522,90.7321
2992.0164,91.1694
2992.9807,91.5276
2993.9448,91.8012
2994.9092,92.0163
2995.8733,92.211
2996.8376,92.4146
2997.8018,92.6378
2998.7661,92.8758
2999.7302,93.1184
3000.6946,93.36
3001.6587,93.602
3002.6230,93.8506
3003.5872,94.1111
3004.5515,94.3849
3005.5156,94.669
3006.4800,94.9569
3007.4441,95.2413
3008.4084,95.516
3009.3726,95.7782
3010.3369,96.0292
3011.3010,96.2735
3012.2654,96.5157
3013.2295,96.7578
3014.1938,96.9971
3015.1580,97.2282
3016.1223,97.4461
3017.0864,97.649
3018.0508,97.8391
3019.0149,98.0205
3019.9792,98.1963
3020.9434,98.3672
3021.9077,98.532
3022.8718,98.6888
3023.8362,98.8367
3024.8003,98.9752
3025.7646,99.1042
3026.7288,99.2229
3027.6931,99.3308
3028.6572,99.4287
3029.6216,99.5191
3030.5857,99.6059
3031.5500,99.6921
3032.5142,99.7789
3033.4785,99.8652
3034.4426,99.9487
3035.4070,100.027
3036.3711,100.098
3037.3354,100.16
3038.2996,100.21
3039.2639,100.22
3040.2280,100.212
3041.1924,100.195
3042.1565,100.169
3043.1208,100.14
3044.0850,100.108
3045.0493,100.074
3046.0134,100.04
3046.9778,100.005
3047.9419,99.9686
3048.9063,99.9272
3049.8704,99.877
3050.8347,99.8157
3051.7988,99.7446
3052.7632,99.6686
3053.7273,99.5948
3054.6917,99.5286
3055.6558,99.4712
3056.6201,99.4195
3057.5842,99.3677
3058.5486,99.3102
3059.5127,99.2431
3060.4771,99.165
3061.4412,99.0767
3062.4055,98.9815
3063.3696,98.8847
3064.3340,98.7925
3065.2981,98.7097
3066.2625,98.6377
3067.2266,98.5741
3068.1909,98.5143
3069.1550,98.4537
3070.1194,98.3897
3071.0835,98.3212
3072.0479,98.2479
3073.0120,98.1694
3073.9763,98.0852
3074.9404,97.996
3075.9048,97.9039
3076.8689,97.8127
3077.8333,97.726
3078.7974,97.6455
3079.7617,97.5707
3080.7258,97.4993
3081.6902,97.4285
3082.6543,97.356
3083.6187,97.2808
3084.5828,97.2029
3085.5471,97.1225
3086.5112,97.0403
3087.4756,96.9564
3088.4397,96.8707
3089.4041,96.7824
3090.3682,96.6905
3091.3325,96.5947
3092.2966,96.4955
3093.2610,96.3938
3094.2251,96.2904
3095.1895,96.1855
3096.1536,96.0788
3097.1179,95.9705
3098.0820,95.8623
3099.0464,95.7571
3100.0105,95.6574
3100.9749,95.5632
3101.9390,95.4717
3102.9033,95.3782
3103.8674,95.279
3104.8318,95.1734
3105.7959,95.0642
3106.7603,94.956
3107.7244,94.8515
3108.6887,94.7505
3109.6528,94.6497
3110.6172,94.5449
3111.5813,94.4333
3112.5457,94.3154
3113.5098,94.1936
3114.4741,94.0715
3115.4382,93.9521
3116.4026,93.8369
3117.3667,93.7262
3118.3311,93.6201
3119.2952,93.5181
3120.2595,93.4198
3121.2236,93.3239
3122.1880,93.2285
3123.1521,93.1319
3124.1165,93.0327
3125.0806,92.9305
3126.0449,92.8253
3127.0090,92.7169
3127.9734,92.6046
3128.9375,92.4878
3129.9019,92.3669
3130.8660,92.2439
3131.8303,92.1217
3132.7944,92.0035
3133.7588,91.8906
3134.7229,91.7822
3135.6873,91.6753
3136.6514,91.567
3137.6157,91.4555
3138.5798,91.3414
3139.5442,91.2263
3140.5083,91.1122
3141.4727,90.9996
3142.4368,90.8871
3143.4011,90.7719
3144.3652,90.6517
3145.3296,90.5257
3146.2937,90.3957
3147.2581,90.265
3148.2222,90.1375
3149.1865,90.0153
3150.1506,89.8984
3151.1150,89.7851
3152.0791,89.6735
3153.0435,89.5622
3154.0076,89.4504
3154.9719,89.3369
3155.9360,89.2196
3156.9004,89.0963
3157.8645,88.966
3158.8289,88.8305
3159.7930,88.6941
3160.7573,88.5615
3161.7214,88.4353
3162.6858,88.3146
3163.6499,88.1956
3164.6143,88.0741
3165.5784,87.9482
3166.5427,87.8195
3167.5068,87.692
3168.4712,87.5692
3169.4353,87.4903
3170.3997,87.3745
3171.3638,87.2544
3172.3281,87.1251
3173.2922,86.9853
3174.2566,86.8385
3175.2207,86.6919
3176.1851,86.553
3177.1492,86.4266
3178.1135,86.3122
3179.0776,86.2049
3180.0420,86.0986
3181.0061,85.9885
3181.9705,85.8734
3182.9346,85.7545
3183.8989,85.634
3184.8630,85.5131
3185.8274,85.3912
3186.7915,85.2676
3187.7559,85.1423
3188.7200,85.0174
3189.6843,84.8959
3190.6484,84.7798
3191.6128,84.6683
3192.5769,84.5577
3193.5413,84.4432
3194.5054,84.3212
3195.4697,84.1919
3196.4338,84.059
3197.3982,83.9281
3198.3623,83.8039
3199.3267,83.6878
3200.2908,83.5782
3201.2551,83.4717
3202.2192,83.3654
3203.1836,83.2578
3204.1477,83.1485
3205.1121,83.0378
3206.0762,82.9252
3207.0405,82.8103
3208.0046,82.6925
3208.9690,82.5722
3209.9331,82.4502
3210.8975,82.3282
3211.8616,82.2083
3212.8259,82.0923
3213.7900,81.9814
3214.7544,81.8757
3215.7185,81.7742
3216.6829,81.6749
3217.6470,81.5764
3218.6113,81.4778
3219.5754,81.3791
3220.5398,81.2803
3221.5039,81.1809
3222.4683,81.0795
3223.4324,80.9754
3224.3967,80.8689
3225.3608,80.7618
3226.3252,80.6565
3227.2893,80.555
3228.2537,80.4579
3229.2178,80.3646
3230.1821,80.274
3231.1462,80.1856
3232.1106,80.0989
3233.0747,80.0136
3234.0391,79.9293
3235.0032,79.8455
3235.9675,79.7622
3236.9316,79.6787
3237.8960,79.5942
3238.8601,79.5066
3239.8245,79.4139
3240.7886,79.3157
3241.7529,79.2147
3242.7170,79.1164
3243.6814,79.0276
3244.6455,78.9522
3245.6099,78.8886
3246.5740,78.8301
3247.5383,78.7678
3248.5024,78.6953
3249.4668,78.6112
3250.4309,78.5192
3251.3953,78.4258
3252.3594,78.3371
3253.3237,78.2564
3254.2878,78.1839
3255.2522,78.1178
3256.2163,78.0558
3257.1807,77.9963
3258.1448,77.938
3259.1091,77.8798
3260.0732,77.8201
3261.0376,77.7574
3262.0017,77.6906
3262.9661,77.6194
3263.9302,77.544
3264.8945,77.465
3265.8586,77.383
3266.8230,77.2989
3267.7871,77.2142
3268.7515,77.1313
3269.7156,77.0534
3270.6799,76.9833
3271.6440,76.9227
3272.6084,76.8711
3273.5725,76.8263
3274.5369,76.7848
3275.5010,76.7438
3276.4653,76.7012
3277.4294,76.6567
3278.3938,76.6107
3279.3579,76.5638
3280.3223,76.5169
3281.2864,76.4709
3282.2507,76.4264
3283.2148,76.3828
3284.1792,76.3376
3285.1433,76.2867
3286.1077,76.2259
3287.0718,76.1535
3288.0361,76.0721
3289.0002,75.9881
3289.9646,75.9103
3290.9287,75.8462
3291.8931,75.8
3292.8572,75.7716
3293.8215,75.7568
3294.7856,75.7485
3295.7500,75.7387
3296.7141,75.7191
3297.6785,75.6843
3298.6426,75.6328
3299.6069,75.5688
3300.5710,75.4998
3301.5354,75.4343
3302.4995,75.3779
3303.4639,75.3324
3304.4280,75.2965
3305.3923,75.2683
3306.3564,75.2467
3307.3208,75.2318
3308.2849,75.223
3309.2493,75.2183
3310.2134,75.2143
3311.1777,75.2075
3312.1418,75.1962
3313.1062,75.1804
3314.0703,75.1614
3315.0347,75.14
3315.9988,75.1165
3316.9631,75.0902
3317.9272,75.0608
3318.8916,75.0286
3319.8557,74.9947
3320.8201,74.9614
3321.7842,74.9312
3322.7485,74.9064
3323.7126,74.8879
3324.6770,74.8757
3325.6411,74.8683
3326.6055,74.8641
3327.5696,74.8611
3328.5339,74.8573
3329.4980,74.8498
3330.4624,74.8353
3331.4265,74.8113
3332.3909,74.7782
3333.3550,74.7404
3334.3193,74.7061
3335.2834,74.6832
3336.2478,74.6754
3337.2119,74.6798
3338.1763,74.6891
3339.1404,74.6957
3340.1047,74.6963
3341.0688,74.6922
3342.0332,74.6879
3342.9973,74.6869
3343.9617,74.6897
3344.9258,74.6944
3345.8901,74.6987
3346.8542,74.702
3347.8186,74.706
3348.7827,74.713
3349.7471,74.7242
3350.7112,74.7385
3351.6755,74.7527
3352.6396,74.7633
3353.6040,74.7679
3354.5681,74.7671
3355.5325,74.7638
3356.4966,74.7631
3357.4609,74.7687
3358.4250,74.7816
3359.3894,74.7987
3360.3535,74.8139
3361.3179,74.8216
3362.2820,74.8204
3363.2463,74.8149
3364.2104,74.8135
3365.1748,74.8251
3366.1389,74.8539
3367.1033,74.8974
3368.0674,74.9478
3369.0317,74.9957
3369.9958,75.0345
3370.9602,75.0623
3371.9243,75.0817
3372.8887,75.0972
3373.8528,75.1136
3374.8171,75.1342
3375.7813,75.1606
3376.7456,75.1938
3377.7097,75.2339
3378.6741,75.2806
3379.6382,75.3325
3380.6025,75.3866
3381.5667,75.4388
3382.5310,75.484
3383.4951,75.5184
3384.4595,75.5404
3385.4236,75.5516
3386.3879,75.557
3387.3521,75.5635
3388.3164,75.5777
3389.2805,75.604
3390.2449,75.6432
3391.2090,75.6924
3392.1733,75.7472
3393.1375,75.8046
3394.1018,75.8642
3395.0659,75.9283
3396.0303,75.9988
3396.9944,76.0741
3397.9587,76.149
3398.9229,76.2172
3399.8872,76.2753
3400.8513,76.3252
3401.8157,76.373
3402.7798,76.425
3403.7441,76.4841
3404.7083,76.5489
3405.6726,76.6153
3406.6367,76.6795
3407.6011,76.7404
3408.5652,76.7992
3409.5295,76.8582
3410.4937,76.9189
3411.4580,76.9821
3412.4221,77.0473
3413.3865,77.1137
3414.3506,77.1803
3415.3149,77.2467
3416.2791,77.3134
3417.2434,77.3824
3418.2075,77.4569
3419.1719,77.5399
3420.1360,77.6318
3421.1003,77.7291
3422.0645,77.8249
3423.0288,77.9124
3423.9929,77.9875
3424.9573,78.0517
3425.9214,78.1105
3426.8857,78.172
3427.8499,78.2436
3428.8142,78.3283
3429.7783,78.4244
3430.7427,78.5266
3431.7068,78.6294
3432.6711,78.7301
3433.6353,78.8296
3434.5996,78.9305
3435.5637,79.0337
3436.5281,79.1372
3437.4922,79.2362
3438.4565,79.3259
3439.4207,79.4036
3440.3850,79.4701
3441.3491,79.5285
3442.3135,79.5844
3443.2776,79.6439
3444.2419,79.7145
3445.2061,79.8025
3446.1704,79.9114
3447.1345,80.0382
3448.0989,80.174
3449.0630,80.3075
3450.0273,80.4307
3450.9915,80.5411
3451.9558,80.6405
3452.9199,80.7324
3453.8843,80.8202
3454.8484,80.9066
3455.8127,80.9941
3456.7769,81.0844
3457.7412,81.1785
3458.7053,81.2752
3459.6697,81.3713
3460.6338,81.4632
3461.5981,81.5489
3462.5623,81.6299
3463.5266,81.7122
3464.4907,81.8036
3465.4551,81.9103
3466.4192,82.0336
3467.3835,82.168
3468.3477,82.3027
3469.3120,82.4263
3470.2761,82.5327
3471.2405,82.6238
3472.2046,82.7091
3473.1689,82.8005
3474.1331,82.9054
3475.0974,83.023
3476.0615,83.1454
3477.0259,83.2636
3477.9900,83.3728
3478.9543,83.4746
3479.9185,83.5745
3480.8828,83.6768
3481.8469,83.7817
3482.8113,83.8854
3483.7754,83.9857
3484.7397,84.0849
3485.7039,84.1905
3486.6682,84.31
3487.6323,84.4459
3488.5967,84.5927
3489.5608,84.7388
3490.5251,84.8727
3491.4893,84.989
3492.4536,85.0903
3493.4177,85.1857
3494.3821,85.2855
3495.3462,85.3949
3496.3105,85.5111
3497.2747,85.6259
3498.2390,85.7323
3499.2031,85.8313
3500.1675,85.9325
3501.1316,86.0503
3502.0959,86.1944
3503.0601,86.361
3504.0244,86.533
3504.9885,86.6924
3505.9529,86.8322
3506.9170,86.9577
3507.8813,87.0796
3508.8455,87.2066
3509.8098,87.341
3510.7739,87.4793
3511.7383,87.6173
3512.7024,87.7549
3513.6667,87.8961
3514.6309,88.044
3515.5952,88.1963
3516.5593,88.3454
3517.5237,88.4817
3518.4878,88.5995
3519.4521,88.6999
3520.4163,88.7894
3521.3806,88.8775
3522.3447,88.9718
3523.3091,89.076
3524.2732,89.1908
3525.2375,89.3172
3526.2017,89.4596
3527.1660,89.6228
3528.1301,89.8055
3529.0945,89.9966
3530.0586,90.178
3531.0229,90.3359
3531.9871,90.4684
3532.9514,90.5864
3533.9155,90.7074
3534.8799,90.8465
3535.8440,91.0079
3536.8083,91.1802
3537.7725,91.3426
3538.7368,91.4767
3539.7009,91.577
3540.6653,91.6517
3541.6294,91.7188
3542.5938,91.8002
3543.5579,91.9165
3544.5222,92.0782
3545.4863,92.2749
3546.4507,92.4774
3547.4148,92.657
3548.3792,92.8048
3549.3433,92.9323
3550.3076,93.0594
3551.2717,93.2018
3552.2361,93.3628
3553.2002,93.5325
3554.1646,93.6954
3555.1287,93.8421
3556.0930,93.9733
3557.0571,94.094
3558.0215,94.2059
3558.9856,94.3048
3559.9500,94.384
3560.9141,94.4408
3561.8784,94.4808
3562.8425,94.5156
3563.8069,94.5617
3564.7710,94.6456
3565.7354,94.8053
3566.6995,95.0577
3567.6638,95.3516
3568.6279,95.601
3569.5923,95.7679
3570.5564,95.8751
3571.5208,95.962
3572.4849,96.0511
3573.4492,96.1448
3574.4133,96.2366
3575.3777,96.3241
3576.3418,96.4125
3577.3062,96.5096
3578.2703,96.6167
3579.2346,96.7248
3580.1987,96.8192
3581.1631,96.8903
3582.1272,96.9414
3583.0916,96.9847
3584.0557,97.0343
3585.0200,97.1047
3585.9841,97.2138
3586.9485,97.3671
3587.9126,97.5279
3588.8770,97.6367
3589.8411,97.6726
3590.8054,97.6639
3591.7695,97.6521
3592.7339,97.6641
3593.6980,97.7061
3594.6624,97.7683
3595.6265,97.8321
3596.5908,97.8842
3597.5549,97.9276
3598.5193,97.9796
3599.4834,98.0563
3600.4478,98.1593
3601.4119,98.2744
3602.3762,98.3852
3603.3403,98.4869
3604.3047,98.5856
3605.2688,98.6882
3606.2332,98.7972
3607.1973,98.9085
3608.1616,99.0097
3609.1257,99.0813
3610.0901,99.1087
3611.0542,99.0943
3612.0186,99.0565
3612.9829,99.0202
3613.9470,99.0057
3614.9114,99.0237
3615.8755,99.0753
3616.8398,99.1565
3617.8040,99.2606
3618.7683,99.373
3619.7324,99.4606
3620.6968,99.4849
3621.6609,99.4408
3622.6252,99.3701
3623.5894,99.3298
3624.5537,99.3537
3625.5178,99.4348
3626.4822,99.5366
3627.4463,99.6334
3628.4106,99.7283
3629.3748,99.8034
3630.3391,99.8103
3631.3032,99.7534
3632.2676,99.6878
3633.2317,99.6578
3634.1960,99.6699
3635.1602,99.7012
3636.1245,99.7237
3637.0886,99.7228
3638.0530,99.7009
3639.0171,99.6673
3639.9814,99.6278
3640.9456,99.584
3641.9099,99.5393
3642.8740,99.5028
3643.8384,99.4819
3644.8025,99.4649
3645.7668,99.4107
3646.7310,99.2789
3647.6953,99.125
3648.6594,99.1204
3649.6238,99.2969
3650.5879,99.4609
3651.5522,99.496
3652.5164,99.4434
3653.4807,99.3744
3654.4448,99.3196
3655.4092,99.2743
3656.3733,99.2245
3657.3376,99.1636
3658.3018,99.098
3659.2661,99.0449
3660.2302,99.0191
3661.1946,99.0205
3662.1587,99.0341
3663.1230,99.0455
3664.0872,99.054
3665.0515,99.0684
3666.0156,99.0896
3666.9800,99.0986
3667.9441,99.0729
3668.9084,99.0179
3669.8726,98.9636
3670.8369,98.9247
3671.8010,98.8932
3672.7654,98.8592
3673.7295,98.8246
3674.6938,98.8204
3675.6580,98.8893
3676.6223,99.0112
3677.5864,99.1108
3678.5508,99.1514
3679.5149,99.1484
3680.4792,99.124
3681.4434,99.0885
3682.4077,99.0509
3683.3718,99.0291
3684.3362,99.0414
3685.3003,99.0857
3686.2646,99.1265
3687.2288,99.1158
3688.1931,99.0505
3689.1572,98.9962
3690.1216,99.005
3691.0857,99.0552
3692.0500,99.109
3693.0142,99.1572
3693.9785,99.2054
3694.9426,99.2581
3695.9070,99.318
3696.8711,99.3889
3697.8354,99.4751
3698.7996,99.5773
3699.7639,99.6902
3700.7280,99.8023
3701.6924,99.8965
3702.6565,99.9541
3703.6208,99.9678
3704.5850,99.9506
3705.5493,99.9253
3706.5134,99.9055
3707.4778,99.8872
3708.4419,99.8649
3709.4063,99.8693
3710.3704,99.9704
3711.3347,100.186
3712.2988,100.418
3713.2632,100.555
3714.2273,100.579
3715.1917,100.536
3716.1558,100.474
3717.1201,100.413
3718.0842,100.351
3719.0486,100.276
3720.0127,100.188
3720.9771,100.098
3721.9412,100.025
3722.9055,99.9865
3723.8696,99.9869
3724.8340,100.016
3725.7981,100.053
3726.7625,100.078
3727.7266,100.092
3728.6909,100.104
3729.6550,100.119
3730.6194,100.124
3731.5835,100.089
3732.5479,100.003
3733.5120,99.9068
3734.4763,99.8874
3735.4404,99.9685
3736.4048,100.061
3737.3689,100.087
3738.3333,100.07
3739.2974,100.094
3740.2617,100.218
3741.2258,100.439
3742.1902,100.675
3743.1543,100.807
3744.1187,100.755
3745.0828,100.551
3746.0471,100.27
3747.0112,100.01
3747.9756,99.8321
3748.9397,99.7639
3749.9041,99.822
3750.8682,99.9839
3751.8325,100.132
3752.7966,100.155
3753.7610,100.059
3754.7251,99.9273
3755.6895,99.8227
3756.6536,99.7713
3757.6179,99.7762
3758.5820,99.8274
3759.5464,99.8987
3760.5105,99.9568
3761.4749,99.9848
3762.4390,99.9867
3763.4033,99.9743
3764.3674,99.9567
3765.3318,99.9401
3766.2959,99.9298
3767.2603,99.9321
3768.2244,99.9526
3769.1887,99.9923
3770.1528,100.041
3771.1172,100.078
3772.0813,100.087
3773.0457,100.071
3774.0098,100.044
3774.9741,100.02
3775.9382,100.001
3776.9026,99.9857
3777.8667,99.9728
3778.8311,99.9641
3779.7952,99.9531
3780.7595,99.9278
3781.7236,99.8857
3782.6880,99.8376
3783.6521,99.8013
3784.6165,99.7931
3785.5806,99.8193
3786.5449,99.8734
3787.5090,99.9395
3788.4734,100.001
3789.4375,100.048
3790.4019,100.075
3791.3660,100.078
3792.3303,100.051
3793.2944,99.9879
3794.2588,99.8943
3795.2229,99.7938
3796.1873,99.7187
3797.1514,99.6903
3798.1157,99.7037
3799.0798,99.7323
3800.0442,99.7502
3801.0083,99.7512
3801.9727,99.7435
3802.9368,99.7387
3803.9011,99.7524
3804.8652,99.798
3805.8296,99.8707
3806.7937,99.9417
3807.7581,99.9723
3808.7222,99.9454
3809.6865,99.8885
3810.6506,99.8547
3811.6150,99.8788
3812.5791,99.9476
3813.5435,100.007
3814.5076,100.004
3815.4719,99.9228
3816.4360,99.7958
3817.4004,99.6677
3818.3645,99.572
3819.3289,99.5278
3820.2930,99.5378
3821.2573,99.5762
3822.2214,99.5956
3823.1858,99.5724
3824.1499,99.5289
3825.1143,99.5055
3826.0784,99.5265
3827.0427,99.588
3828.0068,99.6649
3828.9712,99.7281
3829.9353,99.7601
3830.8997,99.762
3831.8638,99.7491
3832.8281,99.7383
3833.7922,99.735
3834.7566,99.7257
3835.7207,99.687
3836.6851,99.6083
3837.6492,99.5105
3838.6135,99.4354
3839.5776,99.4105
3840.5420,99.4373
3841.5061,99.5034
3842.4705,99.5893
3843.4346,99.6657
3844.3989,99.7006
3845.3630,99.679
3846.3274,99.6196
3847.2915,99.5705
3848.2559,99.5842
3849.2200,99.6879
3850.1843,99.8621
3851.1484,100.048
3852.1128,100.203
3853.0769,100.325
3854.0413,100.358
3855.0054,100.225
3855.9697,99.9794
3856.9338,99.7484
3857.8982,99.6136
3858.8623,99.5818
3859.8267,99.6059
3860.7908,99.6219
3861.7551,99.5928
3862.7192,99.5364
3863.6836,99.5036
3864.6477,99.5254
3865.6121,99.5918
3866.5762,99.6694
3867.5405,99.7231
3868.5046,99.7302
3869.4690,99.6935
3870.4331,99.6407
3871.3975,99.6019
3872.3616,99.5869
3873.3259,99.5885
3874.2900,99.5996
3875.2544,99.6193
3876.2185,99.6461
3877.1829,99.6696
3878.1470,99.6738
3879.1113,99.6506
3880.0754,99.6129
3881.0398,99.5904
3882.0039,99.6085
3882.9683,99.6713
3883.9324,99.7589
3884.8967,99.8355
3885.8608,99.8683
3886.8252,99.8465
3887.7893,99.7854
3888.7537,99.7116
3889.7178,99.6458
3890.6821,99.6007
3891.6462,99.58
3892.6106,99.5732
3893.5747,99.5644
3894.5391,99.5526
3895.5032,99.5484
3896.4675,99.554
3897.4316,99.5587
3898.3960,99.5532
3899.3601,99.5428
3900.3245,99.5402
3901.2886,99.5489
3902.2529,99.5627
3903.2170,99.5754
3904.1814,99.5835
3905.1455,99.5842
3906.1099,99.5803
3907.0740,99.5808
3908.0383,99.5933
3909.0024,99.6159
3909.9668,99.6386
3910.9309,99.6512
3911.8953,99.651
3912.8594,99.6434
3913.8237,99.6363
3914.7878,99.6352
3915.7522,99.641
3916.7163,99.6496
3917.6807,99.6512
3918.6448,99.633
3919.6091,99.5893
3920.5732,99.5283
3921.5376,99.4664
3922.5017,99.4196
3923.4661,99.3967
3924.4302,99.3949
3925.3945,99.4014
3926.3586,99.402
3927.3230,99.3914
3928.2871,99.3734
3929.2515,99.3572
3930.2156,99.3547
3931.1799,99.3765
3932.1440,99.4227
3933.1084,99.4793
3934.0725,99.5277
3935.0369,99.5568
3936.0010,99.5653
3936.9653,99.5559
3937.9294,99.5323
3938.8938,99.4983
3939.8579,99.4607
3940.8223,99.4293
3941.7864,99.4135
3942.7507,99.4149
3943.7148,99.4246
3944.6792,99.4299
3945.6433,99.4225
3946.6077,99.4022
3947.5718,99.3767
3948.5361,99.358
3949.5002,99.3551
3950.4646,99.3681
3951.4287,99.3898
3952.3931,99.4113
3953.3572,99.4271
3954.3215,99.4344
3955.2856,99.4325
3956.2500,99.4223
3957.2141,99.4062
3958.1785,99.3876
3959.1426,99.3713
3960.1069,99.3616
3961.0710,99.3607
3962.0354,99.3671
3962.9995,99.3766
3963.9639,99.3845
3964.9280,99.3879
3965.8923,99.3867
3966.8564,99.3816
3967.8208,99.373
3968.7849,99.3603
3969.7493,99.3434
3970.7134,99.3244
3971.6777,99.3071
3972.6418,99.2958
3973.6062,99.2929
3974.5703,99.2978
3975.5347,99.3077
3976.4988,99.3187
3977.4631,99.3276
3978.4272,99.3317
3979.3916,99.3295
3980.3557,99.3202
3981.3201,99.3055
3982.2842,99.2888
3983.2485,99.275
3984.2126,99.2672
3985.1770,99.2652
3986.1411,99.266
3987.1055,99.265
3988.0696,99.2584
3989.0339,99.2446
3989.9980,99.2247
3990.9624,99.202
3991.9265,99.1809
3992.8909,99.1658
3993.8550,99.1593
3994.8193,99.1613
3995.7834,99.1689
3996.7478,99.1777
3997.7119,99.1841
3998.6763,99.1893
3999.6404,99.1933
4000.6047,99.0541

##### Extended Information
[Comments]
Sample name
Comment
User
Division
Company,HANKYONG

[Detailed Information]
Creation date,4/24/2024 11:07 AM

Data array type,Linear data array
Horizontal axis,Wavenumber [cm-1]
Vertical axis,%T
Start,649.893 cm-1
End,4000.6 cm-1
Data interval,0.964233 cm-1
Data points,3476    

[Measurement Information]
Model Name,FT/IR-4700typeA
Serial Number,D056761788

Accessory,ATR PRO ONE
Accessory S/N,C174761809
Incident angle,45 deg

Measurement Date,4/24/2024 11:07 AM

Light Source,Standard
Detector,TGS
Accumulation,32
Resolution,4 cm-1
Zero Filling,On
Apodization,Cosine
Gain,Auto (4)
Aperture,Auto (7.1 mm)
Scanning Speed,Auto (2 mm/sec)
Filter,Auto (30000 Hz)

