TITLE,
DATA TYPE,INFRARED SPECTRUM
ORIGIN,JASCO
OWNER,
DATE,24/04/24
TIME,14:11:31
SPECTROMETER/DATA SYSTEM,
LOCALE,1033
RESOLUTION,
DELTAX,0.964233
XUNITS,1/CM
YUNITS,TRANSMITTANCE
FIRSTX,  649.8934
LASTX, 4000.6047
NPOINTS,    3476
FIRSTY,    99.52415
MAXY,   101.47935
MINY,    73.86178
XYDATA
649.8934,99.5241
650.8576,99.3425
651.8218,99.2226
652.7861,99.1632
653.7503,99.145
654.7145,99.1497
655.6788,99.159
656.6430,99.1554
657.6072,99.1271
658.5715,99.079
659.5357,99.0367
660.4999,99.0336
661.4642,99.0807
662.4284,99.1452
663.3926,99.1554
664.3569,99.0202
665.3211,98.6434
666.2853,97.9576
667.2496,97.043
668.2138,96.284
669.1780,96.1361
670.1423,96.5664
671.1065,97.184
672.0707,97.7125
673.0350,98.068
673.9992,98.2609
674.9634,98.3348
675.9277,98.3425
676.8919,98.3318
677.8561,98.3345
678.8204,98.366
679.7846,98.4317
680.7488,98.5309
681.7131,98.6543
682.6773,98.785
683.6415,98.905
684.6058,99.0049
685.5700,99.0871
686.5342,99.1578
687.4985,99.2172
688.4627,99.2539
689.4269,99.2488
690.3912,99.1884
691.3554,99.0835
692.3196,98.9847
693.2839,98.9698
694.2481,99.0867
695.2123,99.3096
696.1766,99.5714
697.1408,99.8135
698.1050,100.003
699.0693,100.13
700.0335,100.205
700.9977,100.25
701.9620,100.284
702.9262,100.316
703.8904,100.346
704.8547,100.369
705.8189,100.381
706.7831,100.381
707.7474,100.37
708.7116,100.351
709.6758,100.331
710.6401,100.317
711.6043,100.317
712.5685,100.335
713.5328,100.361
714.4970,100.368
715.4612,100.461
716.4255,100.341
717.3897,100.163
718.3539,99.9701
719.3182,99.8224
720.2824,99.7702
721.2466,99.8224
722.2109,99.9421
723.1751,100.071
724.1393,100.161
725.1036,100.194
726.0678,100.182
727.0320,100.148
727.9963,100.114
728.9605,100.088
729.9247,100.068
730.8890,100.047
731.8532,100.023
732.8174,99.9951
733.7817,99.9953
734.7459,100.03
735.7101,100.054
736.6744,100.06
737.6386,100.043
738.6028,100.009
739.5671,99.9702
740.5313,99.9435
741.4955,99.9437
742.4598,99.9765
743.4240,100.036
744.3882,100.107
745.3525,100.174
746.3167,100.223
747.2809,100.249
748.2452,100.253
749.2094,100.239
750.1736,100.213
751.1379,100.181
752.1021,100.151
753.0663,100.135
754.0306,100.138
754.9948,100.162
755.9590,100.198
756.9233,100.231
757.8875,100.248
758.8517,100.243
759.8160,100.22
760.7802,100.187
761.7444,100.156
762.7087,100.132
763.6729,100.112
764.6371,100.094
765.6014,100.075
766.5656,100.058
767.5298,100.049
768.4941,100.052
769.4583,100.066
770.4225,100.085
771.3868,100.1
772.3510,100.105
773.3152,100.097
774.2795,100.078
775.2437,100.053
776.2079,100.029
777.1722,100.011
778.1364,100.004
779.1006,100.008
780.0649,100.019
781.0291,100.032
781.9933,100.039
782.9576,100.038
783.9218,100.032
784.8860,100.027
785.8503,100.027
786.8145,100.03
787.7787,100.03
788.7430,100.018
789.7072,99.9877
790.6714,99.9417
791.6357,99.888
792.5999,99.8345
793.5641,99.785
794.5284,99.7368
795.4926,99.684
796.4568,99.6228
797.4211,99.5542
798.3853,99.4839
799.3495,99.4184
800.3138,99.3603
801.2780,99.3067
802.2422,99.2517
803.2065,99.1899
804.1707,99.1214
805.1349,99.0517
806.0992,98.9902
807.0634,98.9461
808.0276,98.9249
808.9919,98.9269
809.9561,98.9485
810.9203,98.9839
811.8846,99.0277
812.8488,99.076
813.8130,99.1275
814.7773,99.1823
815.7415,99.2413
816.7057,99.3049
817.6700,99.3718
818.6342,99.4394
819.5984,99.5046
820.5627,99.5646
821.5269,99.618
822.4911,99.6643
823.4554,99.7033
824.4196,99.7349
825.3839,99.7596
826.3481,99.7788
827.3123,99.7942
828.2766,99.8069
829.2408,99.8162
830.2050,99.8194
831.1693,99.8139
832.1335,99.7992
833.0977,99.8277
834.0620,99.8594
835.0262,99.892
835.9904,99.926
836.9547,99.9592
837.9189,99.9887
838.8831,100.013
839.8474,100.031
840.8116,100.043
841.7758,100.047
842.7401,100.042
843.7043,100.025
844.6685,99.9944
845.6328,99.9534
846.5970,99.9034
847.5612,99.8443
848.5255,99.7742
849.4897,99.6914
850.4539,99.5978
851.4182,99.499
852.3824,99.4019
853.3466,99.3098
854.3109,99.2194
855.2751,99.1227
856.2393,99.0116
857.2036,98.8844
858.1678,98.7474
859.1320,98.6118
860.0963,98.488
861.0605,98.3807
862.0247,98.2884
862.9890,98.2067
863.9532,98.1321
864.9174,98.0645
865.8817,98.0051
866.8459,97.9537
867.8101,97.9078
868.7744,97.865
869.7386,97.826
870.7028,97.7956
871.6671,97.7789
872.6313,97.7741
873.5955,97.7688
874.5598,97.7428
875.5240,97.6797
876.4882,97.5783
877.4525,97.4577
878.4167,97.3497
879.3809,97.2834
880.3452,97.2707
881.3094,97.302
882.2736,97.3535
883.2379,97.4006
884.2021,97.4273
885.1663,97.4277
886.1306,97.4003
887.0948,97.3445
888.0590,97.2607
889.0233,97.1558
889.9875,97.0462
890.9517,96.9544
891.9160,96.9
892.8802,96.8913
893.8444,96.9222
894.8087,96.9782
895.7729,97.0456
896.7371,97.1189
897.7014,97.2012
898.6656,97.3005
899.6298,97.4232
900.5941,97.5714
901.5583,97.7422
902.5225,97.9303
903.4868,98.1299
904.4510,98.336
905.4152,98.5436
906.3795,98.7473
907.3437,98.9407
908.3079,99.1179
909.2722,99.2747
910.2364,99.4108
911.2006,99.5295
912.1649,99.637
913.1291,99.7382
914.0933,99.8342
915.0576,99.921
916.0218,99.9921
916.9860,100.041
917.9503,100.067
918.9145,100.073
919.8787,100.065
920.8430,100.05
921.8072,100.011
922.7714,99.9423
923.7357,99.8726
924.6999,99.8005
925.6641,99.723
926.6284,99.6358
927.5926,99.5345
928.5568,99.4165
929.5211,99.2827
930.4853,99.1369
931.4495,98.9845
932.4138,98.8307
933.3780,98.679
934.3422,98.5311
935.3065,98.3872
936.2707,98.2466
937.2349,98.1078
938.1992,97.9686
939.1634,97.8271
940.1276,97.6827
941.0919,97.5364
942.0561,97.3908
943.0203,97.2476
943.9846,97.106
944.9488,96.962
945.9130,96.8105
946.8773,96.6475
947.8415,96.4726
948.8057,96.2895
949.7700,96.1041
950.7342,95.9224
951.6984,95.7475
952.6627,95.5795
953.6269,95.4152
954.5911,95.25
955.5554,95.0788
956.5196,94.8981
957.4838,94.7067
958.4481,94.5066
959.4123,94.3018
960.3765,94.0975
961.3408,93.8983
962.3050,93.707
963.2692,93.5239
964.2335,93.3468
965.1977,93.1713
966.1619,92.9915
967.1262,92.8018
968.0904,92.5976
969.0546,92.3769
970.0189,92.1405
970.9831,91.8905
971.9473,91.6286
972.9116,91.3548
973.8758,91.0673
974.8400,90.7638
975.8043,90.4428
976.7685,90.1047
977.7327,89.7512
978.6970,89.3847
979.6612,89.0088
980.6254,88.6287
981.5897,88.2518
982.5539,87.8874
983.5181,87.5446
984.4824,87.2295
985.4466,86.944
986.4108,86.6865
987.3751,86.4535
988.3393,86.2417
989.3035,86.0489
990.2678,85.8732
991.2320,85.7107
992.1962,85.5545
993.1605,85.3946
994.1247,85.2207
995.0889,85.0253
996.0532,84.8067
997.0174,84.569
997.9816,84.3195
998.9459,84.0647
999.9101,83.808
1000.8743,83.5495
1001.8386,83.2883
1002.8028,83.0244
1003.7670,82.7587
1004.7313,82.4916
1005.6955,82.2213
1006.6597,81.9445
1007.6240,81.6577
1008.5882,81.3596
1009.5524,81.0524
1010.5167,80.7413
1011.4809,80.4335
1012.4451,80.1367
1013.4094,79.8577
1014.3736,79.5997
1015.3378,79.3622
1016.3021,79.1422
1017.2663,78.9394
1018.2305,78.7585
1019.1948,78.6056
1020.1590,78.4781
1021.1232,78.354
1022.0875,78.1941
1023.0517,77.9597
1024.0160,77.6402
1024.9802,77.2717
1025.9445,76.9308
1026.9087,76.7016
1027.8729,76.6328
1028.8372,76.7106
1029.8014,76.863
1030.7656,76.9934
1031.7299,77.0233
1032.6941,76.9209
1033.6583,76.705
1034.6226,76.4273
1035.5868,76.1465
1036.5510,75.9072
1037.5153,75.7279
1038.4795,75.6012
1039.4437,75.5002
1040.4080,75.392
1041.3722,75.2512
1042.3364,75.0697
1043.3007,74.8587
1044.2649,74.6403
1045.2291,74.4359
1046.1934,74.2576
1047.1576,74.1087
1048.1218,73.9898
1049.0861,73.9051
1050.0503,73.8618
1051.0145,73.863
1051.9788,73.9008
1052.9430,73.9581
1053.9072,74.0225
1054.8715,74.1028
1055.8357,74.2356
1056.7999,74.4723
1057.7642,74.8461
1058.7284,75.3389
1059.6926,75.8693
1060.6569,76.3173
1061.6211,76.5794
1062.5853,76.6256
1063.5496,76.5251
1064.5138,76.4209
1065.4780,76.4633
1066.4423,76.7365
1067.4065,77.2198
1068.3707,77.8035
1069.3350,78.3477
1070.2992,78.7499
1071.2634,78.983
1072.2277,79.0913
1073.1919,79.1539
1074.1561,79.2434
1075.1204,79.4019
1076.0846,79.6397
1077.0488,79.9482
1078.0131,80.3143
1078.9773,80.7259
1079.9415,81.1722
1080.9058,81.6421
1081.8700,82.1231
1082.8342,82.6036
1083.7985,83.0742
1084.7627,83.5301
1085.7269,83.9726
1086.6912,84.4101
1087.6554,84.8551
1088.6196,85.3178
1089.5839,85.7976
1090.5481,86.2785
1091.5123,86.7321
1092.4766,87.1286
1093.4408,87.4492
1094.4050,87.6932
1095.3693,87.8755
1096.3335,88.0181
1097.2977,88.1404
1098.2620,88.255
1099.2262,88.3681
1100.1904,88.483
1101.1547,88.6031
1102.1189,88.7326
1103.0831,88.8765
1104.0474,89.0399
1105.0116,89.2277
1105.9758,89.444
1106.9401,89.6911
1107.9043,89.9681
1108.8685,90.2713
1109.8328,90.5956
1110.7970,90.9357
1111.7612,91.2866
1112.7255,91.6428
1113.6897,91.9975
1114.6539,92.342
1115.6182,92.6675
1116.5824,92.9671
1117.5466,93.2382
1118.5109,93.4824
1119.4751,93.7047
1120.4393,93.9108
1121.4036,94.1056
1122.3678,94.2918
1123.3320,94.4709
1124.2963,94.6435
1125.2605,94.8108
1126.2247,94.9746
1127.1890,95.1363
1128.1532,95.2955
1129.1174,95.4489
1130.0817,95.5913
1131.0459,95.7168
1132.0101,95.8219
1132.9744,95.9066
1133.9386,95.9741
1134.9028,96.0287
1135.8671,96.0735
1136.8313,96.1089
1137.7955,96.1334
1138.7598,96.1455
1139.7240,96.1461
1140.6882,96.1389
1141.6525,96.1285
1142.6167,96.1183
1143.5809,96.1083
1144.5452,96.0956
1145.5094,96.0766
1146.4736,96.0495
1147.4379,96.0155
1148.4021,95.9775
1149.3663,95.9383
1150.3306,95.8992
1151.2948,95.8598
1152.2590,95.8196
1153.2233,95.7802
1154.1875,95.7456
1155.1517,95.7221
1156.1160,95.7171
1157.0802,95.7375
1158.0444,95.7887
1159.0087,95.8738
1159.9729,95.9925
1160.9371,96.1417
1161.9014,96.3169
1162.8656,96.5138
1163.8298,96.7302
1164.7941,96.9663
1165.7583,97.2225
1166.7225,97.4972
1167.6868,97.7847
1168.6510,98.0752
1169.6152,98.358
1170.5795,98.6236
1171.5437,98.8665
1172.5079,99.0848
1173.4722,99.2784
1174.4364,99.4477
1175.4006,99.5928
1176.3649,99.7145
1177.3291,99.8141
1178.2933,99.8938
1179.2576,99.9551
1180.2218,99.9976
1181.1860,100.02
1182.1503,100.018
1183.1145,99.9943
1184.0787,99.9498
1185.0430,99.8899
1186.0072,99.8196
1186.9714,99.7417
1187.9357,99.6731
1188.8999,99.5961
1189.8641,99.508
1190.8284,99.4072
1191.7926,99.2925
1192.7568,99.1633
1193.7211,99.0201
1194.6853,98.8652
1195.6495,98.7031
1196.6138,98.5394
1197.5780,98.3786
1198.5422,98.2215
1199.5065,98.1455
1200.4707,97.9758
1201.4349,97.7991
1202.3992,97.6167
1203.3634,97.4336
1204.3276,97.256
1205.2919,97.0886
1206.2561,96.9322
1207.2203,96.7841
1208.1846,96.6397
1209.1488,96.4947
1210.1130,96.3463
1211.0773,96.1935
1212.0415,96.036
1213.0057,95.8734
1213.9700,95.7047
1214.9342,95.5291
1215.8984,95.347
1216.8627,95.1608
1217.8269,94.9742
1218.7911,94.7898
1219.7554,94.6084
1220.7196,94.4292
1221.6838,94.2522
1222.6481,94.0794
1223.6123,93.9159
1224.5765,93.7677
1225.5408,93.6403
1226.5050,93.5372
1227.4692,93.4596
1228.4335,93.4075
1229.3977,93.3805
1230.3619,93.3791
1231.3262,93.4057
1232.2904,93.4636
1233.2546,93.5532
1234.2189,93.6659
1235.1831,93.7788
1236.1473,93.8568
1237.1116,93.8655
1238.0758,93.7896
1239.0400,93.6458
1240.0043,93.4805
1240.9685,93.349
1241.9327,93.2865
1242.8970,93.289
1243.8612,93.316
1244.8254,93.3143
1245.7897,93.248
1246.7539,93.1165
1247.7181,92.9504
1248.6824,92.7918
1249.6466,92.6718
1250.6108,92.5995
1251.5751,92.5654
1252.5393,92.552
1253.5035,92.5449
1254.4678,92.5365
1255.4320,92.5256
1256.3962,92.5149
1257.3605,92.5091
1258.3247,92.5154
1259.2889,92.5417
1260.2532,92.5939
1261.2174,92.6732
1262.1816,92.7749
1263.1459,92.8916
1264.1101,93.0162
1265.0743,93.145
1266.0386,93.2774
1267.0028,93.4158
1267.9670,93.5636
1268.9313,93.7247
1269.8955,93.9019
1270.8597,94.0961
1271.8240,94.305
1272.7882,94.5228
1273.7524,94.7416
1274.7167,94.9536
1275.6809,95.1531
1276.6451,95.3384
1277.6094,95.5119
1278.5736,95.6789
1279.5378,95.8448
1280.5021,96.0123
1281.4663,96.1793
1282.4305,96.3403
1283.3948,96.489
1284.3590,96.6219
1285.3232,96.7407
1286.2875,96.8508
1287.2517,96.9587
1288.2159,97.0678
1289.1802,97.1762
1290.1444,97.2773
1291.1086,97.3634
1292.0729,97.4289
1293.0371,97.4733
1294.0013,97.5005
1294.9656,97.5168
1295.9298,97.5281
1296.8940,97.5368
1297.8583,97.5421
1298.8225,97.5406
1299.7867,97.529
1300.7510,97.5058
1301.7152,97.4703
1302.6794,97.4241
1303.6437,97.3699
1304.6079,97.3097
1305.5721,97.2451
1306.5364,97.1757
1307.5006,97.1
1308.4648,97.0154
1309.4291,96.9218
1310.3933,96.8226
1311.3575,96.7253
1312.3218,96.6391
1313.2860,96.5697
1314.2502,96.5177
1315.2145,96.48
1316.1787,96.4554
1317.1429,96.4484
1318.1072,96.4685
1319.0714,96.5223
1320.0356,96.6065
1320.9999,96.7063
1321.9641,96.8028
1322.9283,96.8822
1323.8926,96.9395
1324.8568,96.978
1325.8210,97.0038
1326.7853,97.022
1327.7495,97.0344
1328.7137,97.0412
1329.6780,97.0427
1330.6422,97.0401
1331.6064,97.0314
1332.5707,97.0101
1333.5349,96.9629
1334.4991,96.8755
1335.4634,96.7414
1336.4276,96.5731
1337.3918,96.4129
1338.3561,96.3271
1339.3203,96.3695
1340.2845,96.5352
1341.2488,96.7603
1342.2130,96.9698
1343.1772,97.1189
1344.1415,97.1973
1345.1057,97.216
1346.0699,97.1948
1347.0342,97.1541
1347.9984,97.108
1348.9626,97.0612
1349.9269,97.0093
1350.8911,96.9449
1351.8553,96.8634
1352.8196,96.7663
1353.7838,96.6608
1354.7480,96.5547
1355.7123,96.4506
1356.6765,96.3426
1357.6407,96.2184
1358.6050,96.0649
1359.5692,95.8757
1360.5334,95.6636
1361.4977,95.4673
1362.4619,95.3305
1363.4261,95.2601
1364.3904,95.2186
1365.3546,95.1608
1366.3188,95.065
1367.2831,94.9339
1368.2473,94.7822
1369.2115,94.6242
1370.1758,94.4659
1371.1400,94.3054
1372.1042,94.1425
1373.0685,93.992
1374.0327,93.8836
1374.9969,93.8396
1375.9612,93.8525
1376.9254,93.8942
1377.8896,93.9442
1378.8539,94.0001
1379.8181,94.068
1380.7823,94.1496
1381.7466,94.2379
1382.7108,94.3247
1383.6750,94.4113
1384.6393,94.5133
1385.6035,94.655
1386.5677,94.8461
1387.5320,95.046
1388.4962,95.1668
1389.4604,95.1377
1390.4247,94.9544
1391.3889,94.6682
1392.3531,94.3569
1393.3174,94.1141
1394.2816,94.0334
1395.2458,94.1614
1396.2101,94.4489
1397.1743,94.7692
1398.1385,95.0004
1399.1028,95.0869
1400.0670,95.0399
1401.0313,94.903
1401.9955,94.723
1402.9597,94.5378
1403.9240,94.3774
1404.8882,94.2637
1405.8524,94.2023
1406.8167,94.1792
1407.7809,94.1755
1408.7451,94.1858
1409.7094,94.2183
1410.6736,94.281
1411.6378,94.3675
1412.6021,94.4578
1413.5663,94.5339
1414.5305,94.5935
1415.4948,94.6481
1416.4590,94.7181
1417.4232,94.8351
1418.3875,95.0223
1419.3517,95.242
1420.3159,95.4088
1421.2802,95.487
1422.2444,95.5202
1423.2086,95.5729
1424.1729,95.6768
1425.1371,95.8208
1426.1013,95.9725
1427.0656,96.1052
1428.0298,96.2117
1428.9940,96.3006
1429.9583,96.3849
1430.9225,96.4723
1431.8867,96.5687
1432.8510,96.6851
1433.8152,96.8324
1434.7794,97.0151
1435.7437,97.2309
1436.7079,97.4575
1437.6721,97.633
1438.6364,97.7015
1439.6006,97.6751
1440.5648,97.6111
1441.5291,97.5528
1442.4933,97.5049
1443.4575,97.4459
1444.4218,97.353
1445.3860,97.2209
1446.3502,97.0653
1447.3145,96.912
1448.2787,96.7791
1449.2429,96.666
1450.2072,96.5663
1451.1714,96.4897
1452.1356,96.4602
1453.0999,96.4874
1454.0641,96.5369
1455.0283,96.5457
1455.9926,96.5391
1456.9568,96.7189
1457.9210,97.135
1458.8853,97.4875
1459.8495,97.6118
1460.8137,97.6079
1461.7780,97.6073
1462.7422,97.6653
1463.7064,97.7791
1464.6707,97.9264
1465.6349,98.0735
1466.5991,98.1849
1467.5634,98.2587
1468.5276,98.3214
1469.4918,98.3803
1470.4561,98.402
1471.4203,98.3654
1472.3845,98.3444
1473.3488,98.4854
1474.3130,98.8031
1475.2772,99.1339
1476.2415,99.3644
1477.2057,99.4904
1478.1699,99.5507
1479.1342,99.5818
1480.0984,99.607
1481.0626,99.6349
1482.0269,99.6591
1482.9911,99.6618
1483.9553,99.6222
1484.9196,99.5208
1485.8838,99.3378
1486.8480,99.0703
1487.8123,98.7842
1488.7765,98.6362
1489.7407,98.7232
1490.7050,98.9323
1491.6692,99.0911
1492.6334,99.1423
1493.5977,99.1064
1494.5619,98.9961
1495.5261,98.801
1496.4904,98.534
1497.4546,98.2597
1498.4188,98.0266
1499.3831,97.8165
1500.3473,97.6186
1501.3115,97.4778
1502.2758,97.4446
1503.2400,97.5026
1504.2042,97.5131
1505.1685,97.2261
1506.1327,96.5329
1507.0969,95.8942
1508.0612,95.8297
1509.0254,96.0874
1509.9896,96.3157
1510.9539,96.4712
1511.9181,96.6038
1512.8823,96.7298
1513.8466,96.8349
1514.8108,96.914
1515.7750,96.9927
1516.7393,97.1105
1517.7035,97.2852
1518.6677,97.5011
1519.6320,97.7304
1520.5962,97.9554
1521.5604,98.1658
1522.5247,98.3494
1523.4889,98.5092
1524.4531,98.6778
1525.4174,98.8886
1526.3816,99.1352
1527.3458,99.3723
1528.3101,99.5575
1529.2743,99.6811
1530.2385,99.7545
1531.2028,99.7888
1532.1670,99.7979
1533.1312,99.8099
1534.0955,99.8518
1535.0597,99.935
1536.0239,100.063
1536.9882,100.206
1537.9524,100.237
1538.9166,99.9456
1539.8809,99.2955
1540.8451,98.7597
1541.8093,98.7782
1542.7736,99.1141
1543.7378,99.4365
1544.7020,99.6575
1545.6663,99.7835
1546.6305,99.826
1547.5947,99.8015
1548.5590,99.7376
1549.5232,99.6623
1550.4874,99.5909
1551.4517,99.5236
1552.4159,99.4611
1553.3801,99.4213
1554.3444,99.4345
1555.3086,99.5105
1556.2728,99.6365
1557.2371,99.7719
1558.2013,100.063
1559.1655,100.526
1560.1298,100.71
1561.0940,100.433
1562.0582,99.9497
1563.0225,99.519
1563.9867,99.2508
1564.9509,99.1407
1565.9152,99.1256
1566.8794,99.1307
1567.8436,99.1111
1568.8079,99.0684
1569.7721,99.0194
1570.7363,98.9641
1571.7006,98.9043
1572.6648,98.853
1573.6290,98.8068
1574.5933,98.7401
1575.5575,98.6524
1576.5217,98.5877
1577.4860,98.5483
1578.4502,98.4803
1579.4144,98.3726
1580.3787,98.2637
1581.3429,98.1817
1582.3071,98.1223
1583.2714,98.0648
1584.2356,97.9935
1585.1998,97.9053
1586.1641,97.8063
1587.1283,97.7035
1588.0925,97.6017
1589.0568,97.5026
1590.0210,97.4069
1590.9852,97.3153
1591.9495,97.2307
1592.9137,97.1599
1593.8779,97.113
1594.8422,97.0967
1595.8064,97.106
1596.7706,97.1226
1597.7349,97.1239
1598.6991,97.0955
1599.6633,97.0384
1600.6276,96.9681
1601.5918,96.9049
1602.5560,96.8613
1603.5203,96.8336
1604.4845,96.8089
1605.4487,96.7784
1606.4130,96.7465
1607.3772,96.7287
1608.3414,96.7394
1609.3057,96.7775
1610.2699,96.8263
1611.2341,96.8744
1612.1984,96.9275
1613.1626,96.9929
1614.1268,97.0587
1615.0911,97.1063
1616.0553,97.14
1617.0195,97.1629
1617.9838,97.139
1618.9480,97.0514
1619.9122,96.9427
1620.8765,96.8649
1621.8407,96.8376
1622.8049,96.8529
1623.7692,96.8935
1624.7334,96.9389
1625.6976,96.975
1626.6619,97.0016
1627.6261,97.0237
1628.5903,97.0424
1629.5546,97.0625
1630.5188,97.1039
1631.4830,97.1885
1632.4473,97.3019
1633.4115,97.3692
1634.3757,97.3051
1635.3400,97.1494
1636.3042,97.0588
1637.2684,97.0563
1638.2327,97.0394
1639.1969,96.9808
1640.1611,96.9272
1641.1254,96.9237
1642.0896,96.9804
1643.0538,97.0603
1644.0181,97.078
1644.9823,96.949
1645.9465,96.7069
1646.9108,96.5281
1647.8750,96.5393
1648.8392,96.7379
1649.8035,97.0894
1650.7677,97.5271
1651.7319,97.9178
1652.6962,98.1704
1653.6604,98.3151
1654.6246,98.2684
1655.5889,97.9658
1656.5531,97.5758
1657.5173,97.2867
1658.4816,97.1663
1659.4458,97.1784
1660.4100,97.2458
1661.3743,97.3154
1662.3385,97.3792
1663.3027,97.4367
1664.2670,97.4764
1665.2312,97.4973
1666.1954,97.5029
1667.1597,97.4805
1668.1239,97.4187
1669.0881,97.353
1670.0524,97.3537
1671.0166,97.446
1671.9808,97.6016
1672.9451,97.7934
1673.9093,97.997
1674.8735,98.1596
1675.8378,98.2069
1676.8020,98.0982
1677.7662,97.8787
1678.7305,97.6596
1679.6947,97.5455
1680.6589,97.5743
1681.6232,97.707
1682.5874,97.8805
1683.5516,98.0747
1684.5159,98.2442
1685.4801,98.2612
1686.4443,98.0975
1687.4086,97.8722
1688.3728,97.7141
1689.3370,97.6831
1690.3013,97.7744
1691.2655,97.9458
1692.2297,98.1369
1693.1940,98.2785
1694.1582,98.3056
1695.1224,98.1937
1696.0867,98.0078
1697.0509,97.9052
1698.0151,98.0307
1698.9794,98.355
1699.9436,98.6545
1700.9078,98.7095
1701.8721,98.4894
1702.8363,98.1306
1703.8005,97.805
1704.7648,97.6265
1705.7290,97.618
1706.6932,97.7174
1707.6575,97.8239
1708.6217,97.8673
1709.5859,97.8407
1710.5502,97.776
1711.5144,97.7032
1712.4786,97.6281
1713.4429,97.5346
1714.4071,97.4136
1715.3713,97.3256
1716.3356,97.4281
1717.2998,97.7916
1718.2640,98.2003
1719.2283,98.4034
1720.1925,98.388
1721.1567,98.2876
1722.1210,98.2218
1723.0852,98.2391
1724.0494,98.3222
1725.0137,98.4157
1725.9779,98.4621
1726.9421,98.4341
1727.9064,98.3485
1728.8706,98.2532
1729.8348,98.1996
1730.7991,98.2196
1731.7633,98.3247
1732.7275,98.515
1733.6918,98.7461
1734.6560,98.8956
1735.6202,98.8747
1736.5845,98.7309
1737.5487,98.5754
1738.5129,98.4765
1739.4772,98.4329
1740.4414,98.4007
1741.4056,98.3363
1742.3699,98.225
1743.3341,98.0844
1744.2983,97.9462
1745.2626,97.8356
1746.2268,97.7671
1747.1910,97.7592
1748.1553,97.8539
1749.1195,98.096
1750.0837,98.4585
1751.0480,98.8177
1752.0122,99.0566
1752.9764,99.1554
1753.9407,99.1667
1754.9049,99.1516
1755.8691,99.1466
1756.8334,99.1631
1757.7976,99.1996
1758.7618,99.2529
1759.7261,99.3232
1760.6903,99.4118
1761.6545,99.5124
1762.6188,99.606
1763.5830,99.6722
1764.5472,99.7058
1765.5115,99.7169
1766.4757,99.7167
1767.4399,99.705
1768.4042,99.6721
1769.3684,99.6136
1770.3326,99.5505
1771.2969,99.5326
1772.2611,99.5932
1773.2253,99.6932
1774.1896,99.7545
1775.1538,99.7469
1776.1180,99.701
1777.0823,99.6599
1778.0465,99.645
1779.0107,99.6559
1779.9750,99.6863
1780.9392,99.7342
1781.9034,99.799
1782.8677,99.8742
1783.8319,99.9433
1784.7961,99.9844
1785.7604,99.9844
1786.7246,99.9509
1787.6888,99.9067
1788.6531,99.869
1789.6173,99.8343
1790.5815,99.7905
1791.5458,99.7457
1792.5100,99.7214
1793.4742,99.7083
1794.4385,99.6783
1795.4027,99.6338
1796.3669,99.6033
1797.3312,99.6059
1798.2954,99.6415
1799.2596,99.6951
1800.2239,99.7573
1801.1881,99.8249
1802.1523,99.8898
1803.1166,99.9402
1804.0808,99.9682
1805.0450,99.9717
1806.0093,99.9514
1806.9735,99.9101
1807.9377,99.8565
1808.9020,99.8094
1809.8662,99.7934
1810.8304,99.823
1811.7947,99.8895
1812.7589,99.968
1813.7231,100.037
1814.6874,100.087
1815.6516,100.118
1816.6158,100.132
1817.5801,100.131
1818.5443,100.119
1819.5085,100.1
1820.4728,100.079
1821.4370,100.061
1822.4012,100.046
1823.3655,100.031
1824.3297,100.011
1825.2939,99.9809
1826.2582,99.9378
1827.2224,99.8903
1828.1866,99.8606
1829.1509,99.8755
1830.1151,99.94
1831.0793,100.021
1832.0436,100.074
1833.0078,100.084
1833.9720,100.066
1834.9363,100.044
1835.9005,100.029
1836.8647,100.022
1837.8290,100.021
1838.7932,100.026
1839.7574,100.044
1840.7217,100.075
1841.6859,100.104
1842.6501,100.109
1843.6144,100.087
1844.5786,100.057
1845.5428,100.032
1846.5071,100.014
1847.4713,100.011
1848.4355,100.036
1849.3998,100.089
1850.3640,100.155
1851.3282,100.211
1852.2925,100.243
1853.2567,100.25
1854.2209,100.24
1855.1852,100.222
1856.1494,100.201
1857.1136,100.179
1858.0779,100.161
1859.0421,100.151
1860.0063,100.15
1860.9706,100.151
1861.9348,100.139
1862.8990,100.1
1863.8633,100.028
1864.8275,99.9278
1865.7917,99.8104
1866.7560,99.7077
1867.7202,99.6728
1868.6844,99.7433
1869.6487,99.8903
1870.6129,100.038
1871.5771,100.136
1872.5414,100.184
1873.5056,100.204
1874.4698,100.214
1875.4341,100.219
1876.3983,100.219
1877.3625,100.214
1878.3268,100.207
1879.2910,100.2
1880.2552,100.193
1881.2195,100.184
1882.1837,100.169
1883.1479,100.148
1884.1122,100.122
1885.0764,100.094
1886.0406,100.069
1887.0049,100.051
1887.9691,100.041
1888.9333,100.041
1889.8976,100.046
1890.8618,100.044
1891.8260,100.029
1892.7903,100.005
1893.7545,99.9849
1894.7188,99.9812
1895.6830,100.001
1896.6472,100.038
1897.6115,100.078
1898.5757,100.105
1899.5399,100.115
1900.5042,100.109
1901.4684,100.095
1902.4326,100.078
1903.3969,100.057
1904.3611,100.028
1905.3253,99.9836
1906.2896,99.9283
1907.2538,99.8749
1908.2180,99.8424
1909.1823,99.8449
1910.1465,99.88
1911.1107,99.9288
1912.0750,99.9703
1913.0392,99.9951
1914.0034,100.006
1914.9677,100.01
1915.9319,100.008
1916.8961,99.9988
1917.8604,99.9727
1918.8246,99.9224
1919.7888,99.851
1920.7531,99.7781
1921.7173,99.7316
1922.6815,99.7323
1923.6458,99.7806
1924.6100,99.8546
1925.5742,99.9246
1926.5385,99.9708
1927.5027,99.9895
1928.4669,99.9875
1929.4312,99.9749
1930.3954,99.96
1931.3596,99.9481
1932.3239,99.9423
1933.2881,99.9445
1934.2523,99.9541
1935.2166,99.9667
1936.1808,99.9745
1937.1450,99.9697
1938.1093,99.9476
1939.0735,99.908
1940.0377,99.856
1941.0020,99.8031
1941.9662,99.7654
1942.9304,99.7549
1943.8947,99.7715
1944.8589,99.8051
1945.8231,99.8456
1946.7874,99.8876
1947.7516,99.9278
1948.7158,99.9622
1949.6801,99.9861
1950.6443,99.9967
1951.6085,99.9959
1952.5728,99.9898
1953.5370,99.9856
1954.5012,99.9881
1955.4655,99.997
1956.4297,100.008
1957.3939,100.018
1958.3582,100.023
1959.3224,100.024
1960.2866,100.021
1961.2509,100.011
1962.2151,99.9916
1963.1793,99.9601
1964.1436,99.9201
1965.1078,99.8827
1966.0720,99.8632
1967.0363,99.8733
1968.0005,99.9115
1968.9647,99.9631
1969.9290,100.01
1970.8932,100.041
1971.8574,100.054
1972.8217,100.055
1973.7859,100.053
1974.7501,100.052
1975.7144,100.054
1976.6786,100.057
1977.6428,100.058
1978.6071,100.057
1979.5713,100.055
1980.5355,100.052
1981.4998,100.051
1982.4640,100.048
1983.4282,100.041
1984.3925,100.028
1985.3567,100.006
1986.3209,99.9752
1987.2852,99.9383
1988.2494,99.8989
1989.2136,99.8636
1990.1779,99.8413
1991.1421,99.8404
1992.1063,99.8636
1993.0706,99.9039
1994.0348,99.9477
1994.9990,99.9827
1995.9633,100.003
1996.9275,100.011
1997.8917,100.011
1998.8560,100.011
1999.8202,100.014
2000.7844,100.02
2001.7487,100.026
2002.7129,100.028
2003.6771,100.025
2004.6414,100.016
2005.6056,100.004
2006.5698,99.9929
2007.5341,99.9848
2008.4983,99.9825
2009.4625,99.9862
2010.4268,99.9928
2011.3910,99.9962
2012.3552,99.9897
2013.3195,99.969
2014.2837,99.9359
2015.2479,99.8989
2016.2122,99.8708
2017.1764,99.862
2018.1406,99.8748
2019.1049,99.9019
2020.0691,99.932
2021.0333,99.9557
2021.9976,99.9693
2022.9618,99.9743
2023.9260,99.975
2024.8903,99.975
2025.8545,99.9763
2026.8187,99.9788
2027.7830,99.9816
2028.7472,99.9839
2029.7114,99.9848
2030.6757,99.9836
2031.6399,99.9796
2032.6041,99.9733
2033.5684,99.9658
2034.5326,99.958
2035.4968,99.9493
2036.4611,99.9383
2037.4253,99.9226
2038.3895,99.9023
2039.3538,99.8803
2040.3180,99.8628
2041.2822,99.8558
2042.2465,99.8617
2043.2107,99.8781
2044.1749,99.8986
2045.1392,99.9165
2046.1034,99.9271
2047.0676,99.9295
2048.0320,99.9253
2048.9961,99.918
2049.9604,99.9111
2050.9246,99.907
2051.8889,99.9065
2052.8530,99.9086
2053.8174,99.9112
2054.7815,99.9122
2055.7458,99.9105
2056.7100,99.9064
2057.6743,99.9005
2058.6384,99.893
2059.6028,99.8826
2060.5669,99.8677
2061.5313,99.8483
2062.4954,99.8279
2063.4597,99.8124
2064.4238,99.8081
2065.3882,99.8173
2066.3523,99.8368
2067.3167,99.8594
2068.2808,99.8777
2069.2451,99.8877
2070.2092,99.8896
2071.1736,99.8863
2072.1377,99.8813
2073.1021,99.8767
2074.0662,99.8729
2075.0305,99.8694
2075.9946,99.8659
2076.9590,99.8624
2077.9231,99.859
2078.8875,99.8555
2079.8516,99.852
2080.8159,99.8483
2081.7800,99.8446
2082.7444,99.8405
2083.7085,99.8353
2084.6729,99.828
2085.6370,99.8179
2086.6013,99.806
2087.5654,99.7943
2088.5298,99.7859
2089.4939,99.7828
2090.4583,99.7851
2091.4224,99.7909
2092.3867,99.7971
2093.3508,99.8012
2094.3152,99.8019
2095.2793,99.7994
2096.2437,99.7944
2097.2078,99.7881
2098.1721,99.7813
2099.1362,99.7746
2100.1006,99.7676
2101.0647,99.7636
2102.0291,99.7612
2102.9932,99.7603
2103.9575,99.7602
2104.9216,99.7602
2105.8860,99.76
2106.8501,99.7593
2107.8145,99.7575
2108.7786,99.7538
2109.7429,99.7472
2110.7070,99.7376
2111.6714,99.7265
2112.6355,99.7168
2113.5999,99.7115
2114.5640,99.7124
2115.5283,99.7189
2116.4924,99.7284
2117.4568,99.7373
2118.4209,99.7431
2119.3853,99.7453
2120.3494,99.7447
2121.3137,99.7426
2122.2778,99.7398
2123.2422,99.7364
2124.2063,99.7319
2125.1707,99.7261
2126.1348,99.7199
2127.0991,99.715
2128.0632,99.7131
2129.0276,99.7151
2129.9917,99.7203
2130.9561,99.7264
2131.9202,99.7306
2132.8845,99.7308
2133.8486,99.7264
2134.8130,99.7196
2135.7771,99.7136
2136.7415,99.7119
2137.7056,99.716
2138.6699,99.7249
2139.6340,99.7357
2140.5984,99.7449
2141.5625,99.7507
2142.5269,99.753
2143.4910,99.754
2144.4553,99.756
2145.4194,99.7603
2146.3838,99.7666
2147.3479,99.7725
2148.3123,99.7758
2149.2764,99.7749
2150.2407,99.7701
2151.2048,99.7634
2152.1692,99.7576
2153.1333,99.7546
2154.0977,99.755
2155.0618,99.7579
2156.0261,99.7613
2156.9902,99.7637
2157.9546,99.7649
2158.9187,99.7657
2159.8831,99.7678
2160.8472,99.7721
2161.8115,99.7782
2162.7756,99.7846
2163.7400,99.7895
2164.7041,99.7914
2165.6685,99.7905
2166.6326,99.7877
2167.5969,99.7845
2168.5610,99.7821
2169.5254,99.7812
2170.4895,99.7819
2171.4539,99.7839
2172.4180,99.7868
2173.3823,99.79
2174.3464,99.7933
2175.3108,99.7961
2176.2749,99.7987
2177.2393,99.8011
2178.2034,99.8036
2179.1677,99.8061
2180.1318,99.8077
2181.0962,99.8072
2182.0603,99.8037
2183.0247,99.7976
2183.9888,99.7905
2184.9531,99.785
2185.9172,99.7835
2186.8816,99.7869
2187.8457,99.7946
2188.8101,99.8045
2189.7742,99.8138
2190.7385,99.8208
2191.7026,99.8246
2192.6670,99.8254
2193.6311,99.8243
2194.5955,99.8223
2195.5596,99.8202
2196.5239,99.8186
2197.4880,99.8177
2198.4524,99.8173
2199.4165,99.8173
2200.3809,99.8174
2201.3450,99.8177
2202.3093,99.8181
2203.2734,99.8185
2204.2378,99.8183
2205.2019,99.8174
2206.1663,99.8157
2207.1304,99.8143
2208.0947,99.8142
2209.0588,99.816
2210.0232,99.8192
2210.9873,99.8223
2211.9517,99.8238
2212.9158,99.823
2213.8801,99.821
2214.8442,99.8194
2215.8086,99.8195
2216.7727,99.8209
2217.7371,99.8221
2218.7012,99.8212
2219.6655,99.8176
2220.6296,99.8124
2221.5940,99.8079
2222.5581,99.8061
2223.5225,99.8071
2224.4866,99.8097
2225.4509,99.8114
2226.4150,99.8099
2227.3794,99.8045
2228.3435,99.7956
2229.3079,99.7847
2230.2720,99.7739
2231.2363,99.7648
2232.2004,99.7584
2233.1648,99.7548
2234.1289,99.753
2235.0933,99.7518
2236.0574,99.7499
2237.0217,99.7465
2237.9858,99.7414
2238.9502,99.7348
2239.9143,99.7272
2240.8787,99.719
2241.8428,99.7106
2242.8071,99.7019
2243.7712,99.693
2244.7356,99.6834
2245.6997,99.6732
2246.6641,99.6622
2247.6282,99.6507
2248.5925,99.6387
2249.5566,99.6261
2250.5210,99.6127
2251.4851,99.5985
2252.4495,99.5836
2253.4136,99.5683
2254.3779,99.5532
2255.3420,99.5384
2256.3064,99.5239
2257.2705,99.5095
2258.2349,99.4951
2259.1990,99.4811
2260.1633,99.468
2261.1274,99.4564
2262.0918,99.4469
2263.0559,99.4401
2264.0203,99.4363
2264.9844,99.4351
2265.9487,99.4357
2266.9128,99.4363
2267.8772,99.4353
2268.8413,99.4316
2269.8057,99.4256
2270.7698,99.4187
2271.7341,99.4131
2272.6982,99.4098
2273.6626,99.4096
2274.6267,99.4122
2275.5911,99.4179
2276.5552,99.4272
2277.5195,99.4409
2278.4836,99.4584
2279.4480,99.4777
2280.4121,99.4949
2281.3765,99.5059
2282.3406,99.5068
2283.3049,99.4955
2284.2690,99.4721
2285.2334,99.4382
2286.1975,99.3971
2287.1619,99.3523
2288.1260,99.3064
2289.0903,99.2604
2290.0544,99.2141
2291.0188,99.1678
2291.9829,99.1238
2292.9473,99.086
2293.9114,99.0587
2294.8757,99.0435
2295.8398,99.0388
2296.8042,99.0412
2297.7683,99.0487
2298.7327,99.0634
2299.6968,99.0906
2300.6611,99.1349
2301.6252,99.1955
2302.5896,99.2638
2303.5537,99.3253
2304.5181,99.3661
2305.4822,99.3801
2306.4465,99.3743
2307.4106,99.368
2308.3750,99.3859
2309.3391,99.447
2310.3035,99.5547
2311.2676,99.6947
2312.2319,99.8421
2313.1960,99.9737
2314.1604,100.08
2315.1245,100.167
2316.0889,100.254
2317.0530,100.356
2318.0173,100.479
2318.9814,100.61
2319.9458,100.716
2320.9099,100.755
2321.8743,100.687
2322.8384,100.505
2323.8027,100.24
2324.7668,99.9624
2325.7312,99.7532
2326.6953,99.6739
2327.6597,99.7393
2328.6238,99.9076
2329.5881,100.093
2330.5522,100.203
2331.5166,100.182
2332.4807,100.039
2333.4451,99.8367
2334.4092,99.651
2335.3735,99.5309
2336.3376,99.4799
2337.3020,99.4613
2338.2661,99.4228
2339.2305,99.3291
2340.1946,99.1901
2341.1589,99.0803
2342.1230,99.1116
2343.0874,99.3516
2344.0515,99.6914
2345.0159,99.8725
2345.9800,99.74
2346.9443,99.3879
2347.9084,99.0437
2348.8728,98.8939
2349.8369,98.9962
2350.8013,99.2704
2351.7654,99.5448
2352.7297,99.6554
2353.6938,99.5614
2354.6582,99.3584
2355.6223,99.1508
2356.5867,98.9546
2357.5508,98.7467
2358.5151,98.5486
2359.4792,98.4199
2360.4436,98.3908
2361.4077,98.4411
2362.3721,98.5468
2363.3362,98.7183
2364.3005,98.9822
2365.2646,99.3394
2366.2290,99.7523
2367.1931,100.166
2368.1575,100.539
2369.1216,100.849
2370.0859,101.094
2371.0500,101.278
2372.0144,101.406
2372.9785,101.475
2373.9429,101.479
2374.9070,101.408
2375.8713,101.258
2376.8354,101.039
2377.7998,100.774
2378.7639,100.493
2379.7283,100.228
2380.6924,100.005
2381.6567,99.84
2382.6208,99.7371
2383.5852,99.6908
2384.5493,99.6884
2385.5137,99.7137
2386.4778,99.7507
2387.4421,99.7868
2388.4063,99.8141
2389.3706,99.8304
2390.3347,99.8378
2391.2991,99.8409
2392.2632,99.8443
2393.2275,99.8506
2394.1917,99.8597
2395.1560,99.8693
2396.1201,99.8772
2397.0845,99.8822
2398.0486,99.8844
2399.0129,99.8853
2399.9771,99.8864
2400.9414,99.8877
2401.9055,99.8884
2402.8699,99.8876
2403.8340,99.8856
2404.7983,99.884
2405.7625,99.885
2406.7268,99.8896
2407.6909,99.8973
2408.6553,99.9057
2409.6194,99.9121
2410.5837,99.9153
2411.5479,99.9154
2412.5122,99.9143
2413.4763,99.9136
2414.4407,99.9142
2415.4048,99.9159
2416.3691,99.9186
2417.3333,99.9221
2418.2976,99.927
2419.2617,99.933
2420.2261,99.9389
2421.1902,99.9433
2422.1545,99.9458
2423.1187,99.9474
2424.0830,99.9508
2425.0471,99.9582
2426.0115,99.9695
2426.9756,99.982
2427.9399,99.9919
2428.9041,99.9967
2429.8684,99.9973
2430.8325,99.9967
2431.7969,99.9984
2432.7610,100.004
2433.7253,100.011
2434.6895,100.018
2435.6538,100.022
2436.6179,100.024
2437.5823,100.024
2438.5464,100.026
2439.5107,100.03
2440.4749,100.035
2441.4392,100.04
2442.4033,100.044
2443.3677,100.047
2444.3318,100.051
2445.2961,100.056
2446.2603,100.062
2447.2246,100.067
2448.1887,100.072
2449.1531,100.074
2450.1172,100.075
2451.0815,100.075
2452.0457,100.075
2453.0100,100.075
2453.9741,100.075
2454.9385,100.075
2455.9026,100.076
2456.8669,100.08
2457.8311,100.086
2458.7954,100.094
2459.7595,100.103
2460.7239,100.112
2461.6880,100.119
2462.6523,100.124
2463.6165,100.127
2464.5808,100.13
2465.5449,100.132
2466.5093,100.133
2467.4734,100.133
2468.4377,100.131
2469.4019,100.129
2470.3662,100.128
2471.3303,100.13
2472.2947,100.137
2473.2588,100.147
2474.2231,100.159
2475.1873,100.17
2476.1516,100.178
2477.1157,100.182
2478.0801,100.182
2479.0442,100.181
2480.0085,100.179
2480.9727,100.18
2481.9370,100.182
2482.9011,100.184
2483.8655,100.187
2484.8296,100.189
2485.7939,100.191
2486.7581,100.195
2487.7224,100.2
2488.6865,100.207
2489.6509,100.213
2490.6150,100.218
2491.5793,100.221
2492.5435,100.224
2493.5078,100.227
2494.4719,100.232
2495.4363,100.238
2496.4004,100.246
2497.3647,100.255
2498.3289,100.264
2499.2932,100.271
2500.2573,100.275
2501.2217,100.276
2502.1858,100.276
2503.1501,100.277
2504.1143,100.281
2505.0786,100.288
2506.0427,100.295
2507.0071,100.301
2507.9712,100.304
2508.9355,100.304
2509.8997,100.301
2510.8640,100.298
2511.8281,100.297
2512.7925,100.298
2513.7566,100.304
2514.7209,100.315
2515.6851,100.33
2516.6494,100.346
2517.6135,100.36
2518.5779,100.371
2519.5420,100.376
2520.5063,100.376
2521.4705,100.373
2522.4348,100.369
2523.3989,100.368
2524.3633,100.37
2525.3274,100.375
2526.2917,100.382
2527.2559,100.389
2528.2202,100.394
2529.1843,100.397
2530.1487,100.398
2531.1128,100.396
2532.0771,100.395
2533.0413,100.394
2534.0056,100.393
2534.9697,100.393
2535.9341,100.392
2536.8982,100.392
2537.8625,100.394
2538.8267,100.4
2539.7910,100.409
2540.7551,100.421
2541.7195,100.434
2542.6836,100.445
2543.6479,100.454
2544.6121,100.461
2545.5764,100.466
2546.5405,100.471
2547.5049,100.475
2548.4690,100.48
2549.4333,100.483
2550.3975,100.486
2551.3618,100.49
2552.3259,100.496
2553.2903,100.504
2554.2544,100.514
2555.2188,100.523
2556.1829,100.53
2557.1472,100.534
2558.1113,100.535
2559.0757,100.536
2560.0398,100.537
2561.0042,100.538
2561.9683,100.539
2562.9326,100.54
2563.8967,100.539
2564.8611,100.539
2565.8252,100.541
2566.7896,100.546
2567.7537,100.555
2568.7180,100.566
2569.6821,100.575
2570.6465,100.581
2571.6106,100.582
2572.5750,100.58
2573.5391,100.575
2574.5034,100.569
2575.4675,100.565
2576.4319,100.563
2577.3960,100.565
2578.3604,100.572
2579.3245,100.581
2580.2888,100.591
2581.2529,100.6
2582.2173,100.605
2583.1814,100.607
2584.1458,100.608
2585.1099,100.61
2586.0742,100.612
2587.0383,100.614
2588.0027,100.614
2588.9668,100.611
2589.9312,100.607
2590.8953,100.602
2591.8596,100.599
2592.8237,100.6
2593.7881,100.603
2594.7522,100.608
2595.7166,100.611
2596.6807,100.614
2597.6450,100.615
2598.6091,100.615
2599.5735,100.617
2600.5376,100.62
2601.5020,100.624
2602.4661,100.627
2603.4304,100.63
2604.3945,100.632
2605.3589,100.634
2606.3230,100.636
2607.2874,100.64
2608.2515,100.645
2609.2158,100.65
2610.1799,100.655
2611.1443,100.66
2612.1084,100.665
2613.0728,100.67
2614.0369,100.673
2615.0012,100.675
2615.9653,100.675
2616.9297,100.674
2617.8938,100.672
2618.8582,100.67
2619.8223,100.67
2620.7866,100.672
2621.7507,100.674
2622.7151,100.677
2623.6792,100.678
2624.6436,100.679
2625.6077,100.68
2626.5720,100.681
2627.5361,100.68
2628.5005,100.678
2629.4646,100.675
2630.4290,100.67
2631.3931,100.666
2632.3574,100.664
2633.3215,100.664
2634.2859,100.667
2635.2500,100.671
2636.2144,100.677
2637.1785,100.681
2638.1428,100.685
2639.1069,100.687
2640.0713,100.688
2641.0354,100.689
2641.9998,100.69
2642.9639,100.693
2643.9282,100.694
2644.8923,100.695
2645.8567,100.692
2646.8208,100.687
2647.7852,100.68
2648.7493,100.673
2649.7136,100.667
2650.6777,100.662
2651.6421,100.658
2652.6062,100.656
2653.5706,100.657
2654.5347,100.659
2655.4990,100.664
2656.4631,100.67
2657.4275,100.675
2658.3916,100.678
2659.3560,100.678
2660.3201,100.676
2661.2844,100.672
2662.2485,100.668
2663.2129,100.666
2664.1770,100.666
2665.1414,100.669
2666.1055,100.674
2667.0698,100.681
2668.0339,100.688
2668.9983,100.693
2669.9624,100.698
2670.9268,100.702
2671.8909,100.706
2672.8552,100.711
2673.8193,100.718
2674.7837,100.723
2675.7478,100.727
2676.7122,100.726
2677.6763,100.722
2678.6406,100.715
2679.6047,100.708
2680.5691,100.701
2681.5332,100.696
2682.4976,100.694
2683.4617,100.693
2684.4260,100.692
2685.3901,100.689
2686.3545,100.684
2687.3186,100.677
2688.2830,100.671
2689.2471,100.668
2690.2114,100.668
2691.1755,100.672
2692.1399,100.677
2693.1040,100.682
2694.0684,100.685
2695.0325,100.685
2695.9968,100.683
2696.9609,100.679
2697.9253,100.674
2698.8894,100.669
2699.8538,100.664
2700.8179,100.66
2701.7822,100.656
2702.7463,100.653
2703.7107,100.651
2704.6748,100.648
2705.6392,100.644
2706.6033,100.638
2707.5676,100.63
2708.5317,100.623
2709.4961,100.618
2710.4602,100.616
2711.4246,100.617
2712.3887,100.618
2713.3530,100.617
2714.3171,100.612
2715.2815,100.602
2716.2456,100.588
2717.2100,100.574
2718.1741,100.561
2719.1384,100.553
2720.1025,100.549
2721.0669,100.55
2722.0310,100.553
2722.9954,100.557
2723.9595,100.56
2724.9238,100.56
2725.8879,100.557
2726.8523,100.553
2727.8164,100.548
2728.7808,100.544
2729.7449,100.539
2730.7092,100.533
2731.6733,100.526
2732.6377,100.518
2733.6018,100.512
2734.5662,100.507
2735.5303,100.502
2736.4946,100.495
2737.4587,100.484
2738.4231,100.47
2739.3872,100.454
2740.3516,100.439
2741.3157,100.426
2742.2800,100.416
2743.2441,100.412
2744.2085,100.413
2745.1726,100.419
2746.1370,100.429
2747.1011,100.439
2748.0654,100.446
2749.0295,100.446
2749.9939,100.439
2750.9580,100.429
2751.9224,100.42
2752.8865,100.414
2753.8508,100.411
2754.8149,100.409
2755.7793,100.405
2756.7434,100.396
2757.7078,100.381
2758.6719,100.365
2759.6362,100.351
2760.6003,100.342
2761.5647,100.338
2762.5288,100.338
2763.4932,100.34
2764.4573,100.342
2765.4216,100.343
2766.3857,100.342
2767.3501,100.341
2768.3142,100.341
2769.2786,100.34
2770.2427,100.34
2771.2070,100.338
2772.1711,100.334
2773.1355,100.327
2774.0996,100.318
2775.0640,100.308
2776.0281,100.299
2776.9924,100.292
2777.9565,100.287
2778.9209,100.281
2779.8850,100.27
2780.8494,100.255
2781.8135,100.236
2782.7778,100.215
2783.7419,100.198
2784.7063,100.186
2785.6704,100.178
2786.6348,100.174
2787.5989,100.168
2788.5632,100.16
2789.5273,100.147
2790.4917,100.131
2791.4558,100.113
2792.4202,100.095
2793.3843,100.076
2794.3486,100.058
2795.3127,100.041
2796.2771,100.024
2797.2412,100.008
2798.2056,99.993
2799.1697,99.9777
2800.1340,99.9626
2801.0981,99.9476
2802.0625,99.9334
2803.0266,99.9198
2803.9910,99.9063
2804.9551,99.8916
2805.9194,99.8742
2806.8835,99.853
2807.8479,99.8269
2808.8120,99.7924
2809.7764,99.7564
2810.7405,99.7208
2811.7048,99.687
2812.6689,99.6553
2813.6333,99.6248
2814.5974,99.5938
2815.5618,99.5604
2816.5259,99.5226
2817.4902,99.4792
2818.4543,99.4301
2819.4187,99.3764
2820.3828,99.3201
2821.3472,99.2639
2822.3113,99.2095
2823.2756,99.1575
2824.2397,99.1065
2825.2041,99.0549
2826.1682,99.0011
2827.1326,98.9446
2828.0967,98.8857
2829.0610,98.8249
2830.0251,98.7621
2830.9895,98.6968
2831.9536,98.6285
2832.9180,98.5571
2833.8821,98.4827
2834.8464,98.4052
2835.8105,98.3244
2836.7749,98.2395
2837.7390,98.1505
2838.7034,98.058
2839.6675,97.9637
2840.6318,97.8702
2841.5959,97.7795
2842.5603,97.6929
2843.5244,97.6097
2844.4888,97.527
2845.4529,97.4406
2846.4172,97.3458
2847.3813,97.2395
2848.3457,97.1209
2849.3098,96.9923
2850.2742,96.8573
2851.2383,96.7193
2852.2026,96.58
2853.1667,96.4396
2854.1311,96.297
2855.0952,96.151
2856.0596,96.0004
2857.0237,95.8437
2857.9880,95.6788
2858.9521,95.5038
2859.9165,95.3175
2860.8806,95.1207
2861.8450,94.9167
2862.8091,94.7107
2863.7734,94.5097
2864.7375,94.3203
2865.7019,94.1479
2866.6660,93.995
2867.6304,93.8605
2868.5945,93.7413
2869.5588,93.6331
2870.5229,93.5324
2871.4873,93.4361
2872.4514,93.3408
2873.4158,93.242
2874.3799,93.1345
2875.3442,93.0134
2876.3083,92.8761
2877.2727,92.7231
2878.2368,92.5571
2879.2012,92.3831
2880.1653,92.2075
2881.1296,92.0389
2882.0938,91.8875
2883.0581,91.7632
2884.0222,91.673
2884.9866,91.617
2885.9507,91.5872
2886.9150,91.5683
2887.8792,91.5428
2888.8435,91.4975
2889.8076,91.4303
2890.7720,91.3515
2891.7361,91.2794
2892.7004,91.2278
2893.6646,91.1933
2894.6289,91.1517
2895.5930,91.0666
2896.5574,90.9117
2897.5215,90.6911
2898.4858,90.4462
2899.4500,90.2414
2900.4143,90.1353
2901.3784,90.1532
2902.3428,90.2776
2903.3069,90.4593
2904.2712,90.6427
2905.2354,90.7888
2906.1997,90.885
2907.1638,90.9407
2908.1282,90.9769
2909.0923,91.0153
2910.0566,91.0727
2911.0208,91.1579
2911.9851,91.2701
2912.9492,91.399
2913.9136,91.5278
2914.8777,91.6389
2915.8420,91.7209
2916.8062,91.7721
2917.7705,91.8001
2918.7346,91.8166
2919.6990,91.8328
2920.6631,91.8564
2921.6274,91.8906
2922.5916,91.9348
2923.5559,91.9851
2924.5200,92.0364
2925.4844,92.0844
2926.4485,92.1277
2927.4128,92.1679
2928.3770,92.2073
2929.3413,92.246
2930.3054,92.2811
2931.2698,92.3077
2932.2339,92.3234
2933.1982,92.3302
2934.1624,92.3342
2935.1267,92.3411
2936.0908,92.353
2937.0552,92.3658
2938.0193,92.3727
2938.9836,92.3679
2939.9478,92.3512
2940.9121,92.3292
2941.8762,92.3128
2942.8406,92.3119
2943.8047,92.3304
2944.7690,92.3633
2945.7332,92.3975
2946.6975,92.4173
2947.6616,92.4101
2948.6260,92.3719
2949.5901,92.3077
2950.5544,92.228
2951.5186,92.1434
2952.4829,92.06
2953.4470,91.9783
2954.4114,91.8955
2955.3755,91.8095
2956.3398,91.7207
2957.3040,91.6321
2958.2683,91.5467
2959.2324,91.4641
2960.1968,91.3793
2961.1609,91.2834
2962.1252,91.1678
2963.0894,91.0276
2964.0537,90.864
2965.0178,90.6848
2965.9822,90.5012
2966.9463,90.3252
2967.9106,90.1678
2968.8748,90.0381
2969.8391,89.9437
2970.8032,89.8899
2971.7676,89.8782
2972.7317,89.9042
2973.6960,89.9575
2974.6602,90.0242
2975.6245,90.0919
2976.5886,90.1529
2977.5530,90.2063
2978.5171,90.2558
2979.4814,90.3051
2980.4456,90.3524
2981.4099,90.3867
2982.3740,90.3893
2983.3384,90.3423
2984.3025,90.2416
2985.2668,90.1095
2986.2310,89.9967
2987.1953,89.9684
2988.1594,90.0782
2989.1238,90.3406
2990.0879,90.7198
2991.0522,91.1431
2992.0164,91.532
2992.9807,91.8353
2993.9448,92.0461
2994.9092,92.1958
2995.8733,92.3301
2996.8376,92.4837
2997.8018,92.6678
2998.7661,92.8737
2999.7302,93.0863
3000.6946,93.2962
3001.6587,93.5041
3002.6230,93.7172
3003.5872,93.9424
3004.5515,94.1806
3005.5156,94.426
3006.4800,94.6687
3007.4441,94.8995
3008.4084,95.1141
3009.3726,95.3155
3010.3369,95.5122
3011.3010,95.7144
3012.2654,95.929
3013.2295,96.1552
3014.1938,96.3856
3015.1580,96.6098
3016.1223,96.8199
3017.0864,97.0132
3018.0508,97.1918
3019.0149,97.3602
3019.9792,97.5223
3020.9434,97.6799
3021.9077,97.8335
3022.8718,97.9831
3023.8362,98.1281
3024.8003,98.2671
3025.7646,98.3974
3026.7288,98.5158
3027.6931,98.6205
3028.6572,98.7133
3029.6216,98.7997
3030.5857,98.887
3031.5500,98.981
3032.5142,99.0833
3033.4785,99.1906
3034.4426,99.2968
3035.4070,99.3961
3036.3711,99.4847
3037.3354,99.5613
3038.2996,99.626
3039.2639,99.6796
3040.2280,99.7226
3041.1924,99.756
3042.1565,99.7806
3043.1208,99.7983
3044.0850,99.8114
3045.0493,99.8229
3046.0134,99.836
3046.9778,99.8525
3047.9419,99.8721
3048.9063,99.8896
3049.8704,99.9018
3050.8347,99.9044
3051.7988,99.8958
3052.7632,99.8777
3053.7273,99.8557
3054.6917,99.8363
3055.6558,99.8253
3056.6201,99.8251
3057.5842,99.8336
3058.5486,99.8445
3059.5127,99.8492
3060.4771,99.8399
3061.4412,99.8132
3062.4055,99.7723
3063.3696,99.7269
3064.3340,99.6892
3065.2981,99.6687
3066.2625,99.667
3067.2266,99.678
3068.1909,99.6917
3069.1550,99.6993
3070.1194,99.6972
3071.0835,99.6862
3072.0479,99.6697
3073.0120,99.6502
3073.9763,99.6283
3074.9404,99.6037
3075.9048,99.5761
3076.8689,99.5467
3077.8333,99.5178
3078.7974,99.4921
3079.7617,99.4718
3080.7258,99.4577
3081.6902,99.4493
3082.6543,99.4447
3083.6187,99.4411
3084.5828,99.4358
3085.5471,99.4272
3086.5112,99.415
3087.4756,99.3999
3088.4397,99.382
3089.4041,99.3603
3090.3682,99.3329
3091.3325,99.2985
3092.2966,99.2579
3093.2610,99.2144
3094.2251,99.1727
3095.1895,99.1365
3096.1536,99.1067
3097.1179,99.0815
3098.0820,99.0584
3099.0464,99.0361
3100.0105,99.0149
3100.9749,98.9966
3101.9390,98.9823
3102.9033,98.9717
3103.8674,98.963
3104.8318,98.954
3105.7959,98.943
3106.7603,98.9295
3107.7244,98.9134
3108.6887,98.8947
3109.6528,98.8726
3110.6172,98.8459
3111.5813,98.8139
3112.5457,98.7767
3113.5098,98.7355
3114.4741,98.6924
3115.4382,98.6496
3116.4026,98.6095
3117.3667,98.5743
3118.3311,98.5459
3119.2952,98.5251
3120.2595,98.5113
3121.2236,98.5019
3122.1880,98.4938
3123.1521,98.4839
3124.1165,98.4714
3125.0806,98.4572
3126.0449,98.4419
3127.0090,98.4242
3127.9734,98.4003
3128.9375,98.3663
3129.9019,98.3216
3130.8660,98.2711
3131.8303,98.2244
3132.7944,98.1915
3133.7588,98.1773
3134.7229,98.1795
3135.6873,98.1893
3136.6514,98.1966
3137.6157,98.1941
3138.5798,98.1791
3139.5442,98.1532
3140.5083,98.12
3141.4727,98.0833
3142.4368,98.0463
3143.4011,98.0115
3144.3652,97.9807
3145.3296,97.954
3146.2937,97.9306
3147.2581,97.9088
3148.2222,97.8869
3149.1865,97.8646
3150.1506,97.8419
3151.1150,97.8188
3152.0791,97.7943
3153.0435,97.7667
3154.0076,97.7349
3154.9719,97.6994
3155.9360,97.6628
3156.9004,97.6283
3157.8645,97.598
3158.8289,97.572
3159.7930,97.5485
3160.7573,97.5247
3161.7214,97.4987
3162.6858,97.4698
3163.6499,97.4387
3164.6143,97.4069
3165.5784,97.3759
3166.5427,97.3468
3167.5068,97.3204
3168.4712,97.2965
3169.4353,97.3628
3170.3997,97.3373
3171.3638,97.3053
3172.3281,97.2643
3173.2922,97.2149
3174.2566,97.1611
3175.2207,97.109
3176.1851,97.0653
3177.1492,97.0337
3178.1135,97.0139
3179.0776,97.0008
3180.0420,96.9877
3181.0061,96.9687
3181.9705,96.9417
3182.9346,96.9088
3183.8989,96.8745
3184.8630,96.8426
3185.8274,96.8146
3186.7915,96.7883
3187.7559,96.7599
3188.7200,96.727
3189.6843,96.6895
3190.6484,96.65
3191.6128,96.6114
3192.5769,96.5752
3193.5413,96.5403
3194.5054,96.5045
3195.4697,96.4665
3196.4338,96.4274
3197.3982,96.3896
3198.3623,96.356
3199.3267,96.3279
3200.2908,96.3049
3201.2551,96.2851
3202.2192,96.2663
3203.1836,96.2456
3204.1477,96.2201
3205.1121,96.1876
3206.0762,96.1474
3207.0405,96.1022
3208.0046,96.057
3208.9690,96.0172
3209.9331,95.9858
3210.8975,95.961
3211.8616,95.9381
3212.8259,95.9117
3213.7900,95.8794
3214.7544,95.843
3215.7185,95.8064
3216.6829,95.7733
3217.6470,95.7442
3218.6113,95.7173
3219.5754,95.6902
3220.5398,95.6619
3221.5039,95.6335
3222.4683,95.6071
3223.4324,95.584
3224.3967,95.5632
3225.3608,95.542
3226.3252,95.5177
3227.2893,95.4891
3228.2537,95.4581
3229.2178,95.4279
3230.1821,95.4016
3231.1462,95.3804
3232.1106,95.363
3233.0747,95.3464
3234.0391,95.3273
3235.0032,95.3037
3235.9675,95.2753
3236.9316,95.2428
3237.8960,95.2075
3238.8601,95.1702
3239.8245,95.132
3240.7886,95.0942
3241.7529,95.0586
3242.7170,95.0279
3243.6814,95.0048
3244.6455,94.9905
3245.6099,94.9842
3246.5740,94.9821
3247.5383,94.979
3248.5024,94.9704
3249.4668,94.9533
3250.4309,94.9276
3251.3953,94.8956
3252.3594,94.8603
3253.3237,94.8251
3254.2878,94.7922
3255.2522,94.7631
3256.2163,94.7393
3257.1807,94.722
3258.1448,94.7112
3259.1091,94.7045
3260.0732,94.6969
3261.0376,94.6826
3262.0017,94.6585
3262.9661,94.626
3263.9302,94.5912
3264.8945,94.5611
3265.8586,94.5396
3266.8230,94.5243
3267.7871,94.5077
3268.7515,94.4811
3269.7156,94.4406
3270.6799,94.3892
3271.6440,94.3363
3272.6084,94.2926
3273.5725,94.2651
3274.5369,94.2543
3275.5010,94.2548
3276.4653,94.2594
3277.4294,94.2625
3278.3938,94.2616
3279.3579,94.2568
3280.3223,94.2486
3281.2864,94.237
3282.2507,94.2219
3283.2148,94.2039
3284.1792,94.1843
3285.1433,94.1652
3286.1077,94.1479
3287.0718,94.1327
3288.0361,94.119
3289.0002,94.1061
3289.9646,94.0937
3290.9287,94.0819
3291.8931,94.0709
3292.8572,94.0609
3293.8215,94.052
3294.7856,94.0438
3295.7500,94.0352
3296.7141,94.0253
3297.6785,94.0137
3298.6426,94.0011
3299.6069,93.9902
3300.5710,93.9833
3301.5354,93.9804
3302.4995,93.9781
3303.4639,93.9705
3304.4280,93.9533
3305.3923,93.9272
3306.3564,93.8985
3307.3208,93.8764
3308.2849,93.8672
3309.2493,93.8706
3310.2134,93.8802
3311.1777,93.8872
3312.1418,93.8861
3313.1062,93.8769
3314.0703,93.8635
3315.0347,93.85
3315.9988,93.8381
3316.9631,93.8265
3317.9272,93.8132
3318.8916,93.798
3319.8557,93.7827
3320.8201,93.7699
3321.7842,93.7606
3322.7485,93.7531
3323.7126,93.7441
3324.6770,93.7308
3325.6411,93.7129
3326.6055,93.6927
3327.5696,93.6734
3328.5339,93.6568
3329.4980,93.642
3330.4624,93.6273
3331.4265,93.6119
3332.3909,93.5978
3333.3550,93.5897
3334.3193,93.5921
3335.2834,93.6058
3336.2478,93.6261
3337.2119,93.6444
3338.1763,93.6523
3339.1404,93.6468
3340.1047,93.6306
3341.0688,93.6111
3342.0332,93.5956
3342.9973,93.5888
3343.9617,93.5914
3344.9258,93.6018
3345.8901,93.6178
3346.8542,93.6379
3347.8186,93.6606
3348.7827,93.6844
3349.7471,93.7069
3350.7112,93.7252
3351.6755,93.7368
3352.6396,93.74
3353.6040,93.7351
3354.5681,93.7245
3355.5325,93.7133
3356.4966,93.7079
3357.4609,93.7136
3358.4250,93.7313
3359.3894,93.7558
3360.3535,93.7773
3361.3179,93.7864
3362.2820,93.7794
3363.2463,93.7615
3364.2104,93.7449
3365.1748,93.7434
3366.1389,93.7647
3367.1033,93.8066
3368.0674,93.8585
3369.0317,93.9067
3369.9958,93.9416
3370.9602,93.9607
3371.9243,93.9683
3372.8887,93.9707
3373.8528,93.973
3374.8171,93.9771
3375.7813,93.9827
3376.7456,93.9893
3377.7097,93.997
3378.6741,94.0064
3379.6382,94.0173
3380.6025,94.0284
3381.5667,94.0383
3382.5310,94.0472
3383.4951,94.057
3384.4595,94.07
3385.4236,94.0864
3386.3879,94.1039
3387.3521,94.1196
3388.3164,94.1322
3389.2805,94.1434
3390.2449,94.1559
3391.2090,94.1713
3392.1733,94.1891
3393.1375,94.2079
3394.1018,94.2282
3395.0659,94.2533
3396.0303,94.2868
3396.9944,94.3278
3397.9587,94.3693
3398.9229,94.4004
3399.8872,94.4136
3400.8513,94.4105
3401.8157,94.4012
3402.7798,94.3994
3403.7441,94.4145
3404.7083,94.4477
3405.6726,94.493
3406.6367,94.541
3407.6011,94.5842
3408.5652,94.6187
3409.5295,94.6438
3410.4937,94.661
3411.4580,94.6727
3412.4221,94.6817
3413.3865,94.69
3414.3506,94.6979
3415.3149,94.704
3416.2791,94.7062
3417.2434,94.7052
3418.2075,94.7069
3419.1719,94.7215
3420.1360,94.7582
3421.1003,94.8186
3422.0645,94.8933
3423.0288,94.9662
3423.9929,95.0231
3424.9573,95.0587
3425.9214,95.0785
3426.8857,95.0949
3427.8499,95.1206
3428.8142,95.1612
3429.7783,95.2129
3430.7427,95.2663
3431.7068,95.3127
3432.6711,95.3501
3433.6353,95.3832
3434.5996,95.4187
3435.5637,95.4595
3436.5281,95.502
3437.4922,95.5389
3438.4565,95.5633
3439.4207,95.573
3440.3850,95.5702
3441.3491,95.5599
3442.3135,95.5473
3443.2776,95.5377
3444.2419,95.5378
3445.2061,95.5557
3446.1704,95.5981
3447.1345,95.6644
3448.0989,95.7441
3449.0630,95.8225
3450.0273,95.8885
3450.9915,95.9394
3451.9558,95.9788
3452.9199,96.0116
3453.8843,96.0394
3454.8484,96.0605
3455.8127,96.0722
3456.7769,96.0745
3457.7412,96.0719
3458.7053,96.0719
3459.6697,96.081
3460.6338,96.1018
3461.5981,96.1317
3462.5623,96.1657
3463.5266,96.2
3464.4907,96.235
3465.4551,96.2746
3466.4192,96.3231
3467.3835,96.381
3468.3477,96.4425
3469.3120,96.4975
3470.2761,96.5372
3471.2405,96.5595
3472.2046,96.5714
3473.1689,96.5852
3474.1331,96.6113
3475.0974,96.6504
3476.0615,96.6924
3477.0259,96.723
3477.9900,96.7331
3478.9543,96.7252
3479.9185,96.7125
3480.8828,96.7116
3481.8469,96.7315
3482.8113,96.7688
3483.7754,96.8128
3484.7397,96.8548
3485.7039,96.8941
3486.6682,96.9364
3487.6323,96.9875
3488.5967,97.0466
3489.5608,97.105
3490.5251,97.1514
3491.4893,97.1788
3492.4536,97.1888
3493.4177,97.191
3494.3821,97.1973
3495.3462,97.2145
3496.3105,97.238
3497.2747,97.2538
3498.2390,97.2477
3499.2031,97.2157
3500.1675,97.1695
3501.1316,97.1362
3502.0959,97.1464
3503.0601,97.2125
3504.0244,97.3171
3504.9885,97.4246
3505.9529,97.5067
3506.9170,97.5552
3507.8813,97.5802
3508.8455,97.601
3509.8098,97.6338
3510.7739,97.6822
3511.7383,97.7379
3512.7024,97.7908
3513.6667,97.8373
3514.6309,97.88
3515.5952,97.9216
3516.5593,97.9605
3517.5237,97.9901
3518.4878,98.0021
3519.4521,97.9914
3520.4163,97.9594
3521.3806,97.9141
3522.3447,97.8682
3523.3091,97.8342
3524.2732,97.821
3525.2375,97.8328
3526.2017,97.8719
3527.1660,97.9387
3528.1301,98.0295
3529.0945,98.1328
3530.0586,98.2321
3531.0229,98.3137
3531.9871,98.3725
3532.9514,98.4128
3533.9155,98.4442
3534.8799,98.4782
3535.8440,98.522
3536.8083,98.5727
3537.7725,98.6167
3538.7368,98.6369
3539.7009,98.6228
3540.6653,98.5747
3541.6294,98.5038
3542.5938,98.4318
3543.5579,98.3907
3544.5222,98.4117
3545.4863,98.5003
3546.4507,98.6246
3547.4148,98.7356
3548.3792,98.804
3549.3433,98.8328
3550.3076,98.8467
3551.2717,98.8754
3552.2361,98.9379
3553.2002,99.0307
3554.1646,99.1305
3555.1287,99.2111
3556.0930,99.2572
3557.0571,99.2654
3558.0215,99.2389
3558.9856,99.1846
3559.9500,99.1129
3560.9141,99.0348
3561.8784,98.959
3562.8425,98.8875
3563.8069,98.8195
3564.7710,98.7715
3565.7354,98.8002
3566.6995,98.9606
3567.6638,99.2111
3568.6279,99.4306
3569.5923,99.5479
3570.5564,99.583
3571.5208,99.5885
3572.4849,99.5973
3573.4492,99.6141
3574.4133,99.6307
3575.3777,99.6421
3576.3418,99.6506
3577.3062,99.6612
3578.2703,99.6739
3579.2346,99.6819
3580.1987,99.6774
3581.1631,99.6601
3582.1272,99.6392
3583.0916,99.6244
3584.0557,99.6161
3585.0200,99.6119
3585.9841,99.6275
3586.9485,99.6888
3587.9126,99.7743
3588.8770,99.8143
3589.8411,99.7724
3590.8054,99.6764
3591.7695,99.5743
3592.7339,99.4957
3593.6980,99.4467
3594.6624,99.4187
3595.6265,99.3951
3596.5908,99.3647
3597.5549,99.3356
3598.5193,99.3327
3599.4834,99.3784
3600.4478,99.4722
3601.4119,99.588
3602.3762,99.6964
3603.3403,99.7866
3604.3047,99.8654
3605.2688,99.9431
3606.2332,100.026
3607.1973,100.115
3608.1616,100.198
3609.1257,100.247
3610.0901,100.234
3611.0542,100.156
3612.0186,100.04
3612.9829,99.9183
3613.9470,99.8313
3614.9114,99.7981
3615.8755,99.8172
3616.8398,99.8756
3617.8040,99.9573
3618.7683,100.039
3619.7324,100.075
3620.6968,100.017
3621.6609,99.8672
3622.6252,99.6989
3623.5894,99.6059
3624.5537,99.641
3625.5178,99.7859
3626.4822,99.9671
3627.4463,100.12
3628.4106,100.231
3629.3748,100.273
3630.3391,100.197
3631.3032,100.026
3632.2676,99.8538
3633.2317,99.7557
3634.1960,99.7433
3635.1602,99.7808
3636.1245,99.82
3637.0886,99.8297
3638.0530,99.8034
3639.0171,99.7489
3639.9814,99.6752
3640.9456,99.5907
3641.9099,99.5095
3642.8740,99.4525
3643.8384,99.4343
3644.8025,99.4369
3645.7668,99.3934
3646.7310,99.2345
3647.6953,99.0344
3648.6594,99.0417
3649.6238,99.2926
3650.5879,99.4952
3651.5522,99.4942
3652.5164,99.3759
3653.4807,99.2592
3654.4448,99.1877
3655.4092,99.1407
3656.3733,99.0797
3657.3376,98.9852
3658.3018,98.8696
3659.2661,98.768
3660.2302,98.7103
3661.1946,98.6968
3662.1587,98.7032
3663.1230,98.708
3664.0872,98.7155
3665.0515,98.7456
3666.0156,98.8031
3666.9800,98.8557
3667.9441,98.8592
3668.9084,98.8118
3669.8726,98.7588
3670.8369,98.7316
3671.8010,98.7277
3672.7654,98.7285
3673.7295,98.7136
3674.6938,98.693
3675.6580,98.7098
3676.6223,98.7572
3677.5864,98.7727
3678.5508,98.7367
3679.5149,98.6816
3680.4792,98.6327
3681.4434,98.5902
3682.4077,98.552
3683.3718,98.5353
3684.3362,98.5659
3685.3003,98.6445
3686.2646,98.7232
3687.2288,98.7317
3688.1931,98.6586
3689.1572,98.5862
3690.1216,98.5768
3691.0857,98.5999
3692.0500,98.6166
3693.0142,98.6314
3693.9785,98.6639
3694.9426,98.7242
3695.9070,98.8131
3696.8711,98.9296
3697.8354,99.07
3698.7996,99.2227
3699.7639,99.3684
3700.7280,99.4863
3701.6924,99.5612
3702.6565,99.587
3703.6208,99.5727
3704.5850,99.546
3705.5493,99.5382
3706.5134,99.5601
3707.4778,99.5923
3708.4419,99.6115
3709.4063,99.6496
3710.3704,99.8047
3711.3347,100.107
3712.2988,100.414
3713.2632,100.569
3714.2273,100.549
3715.1917,100.43
3716.1558,100.29
3717.1201,100.164
3718.0842,100.053
3719.0486,99.9429
3720.0127,99.8246
3720.9771,99.7019
3721.9412,99.5887
3722.9055,99.5045
3723.8696,99.4687
3724.8340,99.4873
3725.7981,99.5445
3726.7625,99.6149
3727.7266,99.6843
3728.6909,99.7537
3729.6550,99.8195
3730.6194,99.8567
3731.5835,99.8257
3732.5479,99.7146
3733.5120,99.5961
3734.4763,99.5997
3735.4404,99.7465
3736.4048,99.8888
3737.3689,99.9124
3738.3333,99.8702
3739.2974,99.9016
3740.2617,100.108
3741.2258,100.485
3742.1902,100.909
3743.1543,101.19
3744.1187,101.191
3745.0828,100.926
3746.0471,100.534
3747.0112,100.175
3747.9756,99.9462
3748.9397,99.8779
3749.9041,99.9743
3750.8682,100.185
3751.8325,100.346
3752.7966,100.327
3753.7610,100.154
3754.7251,99.9546
3755.6895,99.8191
3756.6536,99.7734
3757.6179,99.8065
3758.5820,99.8922
3759.5464,99.9907
3760.5105,100.061
3761.4749,100.088
3762.4390,100.083
3763.4033,100.062
3764.3674,100.037
3765.3318,100.014
3766.2959,99.9994
3767.2603,100.005
3768.2244,100.038
3769.1887,100.1
3770.1528,100.17
3771.1172,100.218
3772.0813,100.224
3773.0457,100.195
3774.0098,100.158
3774.9741,100.133
3775.9382,100.12
3776.9026,100.108
3777.8667,100.091
3778.8311,100.068
3779.7952,100.035
3780.7595,99.983
3781.7236,99.914
3782.6880,99.8484
3783.6521,99.8123
3784.6165,99.8242
3785.5806,99.8837
3786.5449,99.9698
3787.5090,100.053
3788.4734,100.114
3789.4375,100.151
3790.4019,100.172
3791.3660,100.184
3792.3303,100.176
3793.2944,100.128
3794.2588,100.025
3795.2229,99.8838
3796.1873,99.748
3797.1514,99.6646
3798.1157,99.6522
3799.0798,99.6933
3800.0442,99.7546
3801.0083,99.8093
3801.9727,99.8426
3802.9368,99.8587
3803.9011,99.8878
3804.8652,99.9633
3805.8296,100.083
3806.7937,100.197
3807.7581,100.234
3808.7222,100.164
3809.6865,100.034
3810.6506,99.94
3811.6150,99.9423
3812.5791,100.026
3813.5435,100.111
3814.5076,100.108
3815.4719,99.9904
3816.4360,99.807
3817.4004,99.6357
3818.3645,99.5392
3819.3289,99.5463
3820.2930,99.6409
3821.2573,99.751
3822.2214,99.7863
3823.1858,99.7186
3824.1499,99.6019
3825.1143,99.5151
3826.0784,99.5058
3827.0427,99.5738
3828.0068,99.6832
3828.9712,99.7872
3829.9353,99.8512
3830.8997,99.8655
3831.8638,99.8429
3832.8281,99.8056
3833.7922,99.7678
3834.7566,99.7232
3835.7207,99.6518
3836.6851,99.545
3837.6492,99.4296
3838.6135,99.3537
3839.5776,99.3467
3840.5420,99.4063
3841.5061,99.5135
3842.4705,99.6377
3843.4346,99.7332
3844.3989,99.7539
3845.3630,99.6857
3846.3274,99.5684
3847.2915,99.4825
3848.2559,99.5103
3849.2200,99.6909
3850.1843,99.9886
3851.1484,100.304
3852.1128,100.558
3853.0769,100.74
3854.0413,100.776
3855.0054,100.565
3855.9697,100.189
3856.9338,99.8312
3857.8982,99.6108
3858.8623,99.5413
3859.8267,99.5604
3860.7908,99.5819
3861.7551,99.5558
3862.7192,99.5031
3863.6836,99.4834
3864.6477,99.5274
3865.6121,99.6154
3866.5762,99.7032
3867.5405,99.7491
3868.5046,99.7309
3869.4690,99.6636
3870.4331,99.5955
3871.3975,99.5698
3872.3616,99.5901
3873.3259,99.6318
3874.2900,99.6744
3875.2544,99.7139
3876.2185,99.7505
3877.1829,99.7748
3878.1470,99.7681
3879.1113,99.7209
3880.0754,99.6514
3881.0398,99.602
3882.0039,99.6121
3882.9683,99.6944
3883.9324,99.8268
3884.8967,99.9593
3885.8608,100.037
3886.8252,100.035
3887.7893,99.9682
3888.7537,99.8736
3889.7178,99.7831
3890.6821,99.7172
3891.6462,99.6833
3892.6106,99.6681
3893.5747,99.6522
3894.5391,99.6386
3895.5032,99.6451
3896.4675,99.6738
3897.4316,99.7012
3898.3960,99.6996
3899.3601,99.6624
3900.3245,99.6063
3901.2886,99.5559
3902.2529,99.5339
3903.2170,99.555
3904.1814,99.6119
3905.1455,99.6766
3906.1099,99.7265
3907.0740,99.7609
3908.0383,99.7899
3909.0024,99.8183
3909.9668,99.8406
3910.9309,99.849
3911.8953,99.8416
3912.8594,99.8234
3913.8237,99.8014
3914.7878,99.781
3915.7522,99.7663
3916.7163,99.7587
3917.6807,99.7514
3918.6448,99.7273
3919.6091,99.6741
3920.5732,99.5986
3921.5376,99.5235
3922.5017,99.4744
3923.4661,99.4665
3924.4302,99.494
3925.3945,99.5306
3926.3586,99.5471
3927.3230,99.531
3928.2871,99.4901
3929.2515,99.4455
3930.2156,99.4247
3931.1799,99.4511
3932.1440,99.5265
3933.1084,99.6257
3934.0725,99.7154
3935.0369,99.7757
3936.0010,99.8025
3936.9653,99.7982
3937.9294,99.7658
3938.8938,99.7098
3939.8579,99.6417
3940.8223,99.5821
3941.7864,99.5525
3942.7507,99.5599
3943.7148,99.5893
3944.6792,99.6145
3945.6433,99.6146
3946.6077,99.5855
3947.5718,99.5402
3948.5361,99.503
3949.5002,99.4944
3950.4646,99.5176
3951.4287,99.5595
3952.3931,99.6022
3953.3572,99.6333
3954.3215,99.6492
3955.2856,99.6526
3956.2500,99.6491
3957.2141,99.6439
3958.1785,99.6399
3959.1426,99.6391
3960.1069,99.6443
3961.0710,99.6589
3962.0354,99.6842
3962.9995,99.7164
3963.9639,99.7467
3964.9280,99.7654
3965.8923,99.7662
3966.8564,99.7489
3967.8208,99.7193
3968.7849,99.6862
3969.7493,99.6577
3970.7134,99.6385
3971.6777,99.6296
3972.6418,99.6309
3973.6062,99.6413
3974.5703,99.6592
3975.5347,99.6807
3976.4988,99.7006
3977.4631,99.7136
3978.4272,99.7176
3979.3916,99.714
3980.3557,99.7068
3981.3201,99.6999
3982.2842,99.6948
3983.2485,99.6896
3984.2126,99.6816
3985.1770,99.6694
3986.1411,99.6545
3987.1055,99.6397
3988.0696,99.6274
3989.0339,99.6171
3989.9980,99.6075
3990.9624,99.5985
3991.9265,99.5932
3992.8909,99.5967
3993.8550,99.6124
3994.8193,99.6383
3995.7834,99.6667
3996.7478,99.6876
3997.7119,99.6947
3998.6763,99.6884
3999.6404,99.6747
4000.6047,99.4663

##### Extended Information
[Comments]
Sample name
Comment
User
Division
Company,HANKYONG

[Detailed Information]
Creation date,4/24/2024 2:11 PM

Data array type,Linear data array
Horizontal axis,Wavenumber [cm-1]
Vertical axis,%T
Start,649.893 cm-1
End,4000.6 cm-1
Data interval,0.964233 cm-1
Data points,3476    

[Measurement Information]
Model Name,FT/IR-4700typeA
Serial Number,D056761788

Accessory,ATR PRO ONE
Accessory S/N,C174761809
Incident angle,45 deg

Measurement Date,4/24/2024 2:10 PM

Light Source,Standard
Detector,TGS
Accumulation,32
Resolution,4 cm-1
Zero Filling,On
Apodization,Cosine
Gain,Auto (4)
Aperture,Auto (7.1 mm)
Scanning Speed,Auto (2 mm/sec)
Filter,Auto (30000 Hz)

