TITLE,
DATA TYPE,INFRARED SPECTRUM
ORIGIN,JASCO
OWNER,
DATE,24/04/24
TIME,15:41:53
SPECTROMETER/DATA SYSTEM,
LOCALE,1033
RESOLUTION,
DELTAX,0.964233
XUNITS,1/CM
YUNITS,TRANSMITTANCE
FIRSTX,  649.8934
LASTX, 4000.6047
NPOINTS,    3476
FIRSTY,    99.51228
MAXY,   102.22675
MINY,    77.42885
XYDATA
649.8934,99.5123
650.8576,99.5051
651.8218,99.4625
652.7861,99.3874
653.7503,99.2752
654.7145,99.129
655.6788,98.9625
656.6430,98.7979
657.6072,98.6555
658.5715,98.543
659.5357,98.4525
660.4999,98.37
661.4642,98.2915
662.4284,98.2317
663.3926,98.2204
664.3569,98.2917
665.3211,98.4773
666.2853,98.7886
667.2496,99.1635
668.2138,99.4142
669.1780,99.3744
670.1423,99.1361
671.1065,98.9054
672.0707,98.7841
673.0350,98.7787
673.9992,98.8582
674.9634,98.9819
675.9277,99.1115
676.8919,99.2247
677.8561,99.318
678.8204,99.3974
679.7846,99.4649
680.7488,99.5163
681.7131,99.5486
682.6773,99.5667
683.6415,99.5825
684.6058,99.6067
685.5700,99.6407
686.5342,99.6747
687.4985,99.6919
688.4627,99.6767
689.4269,99.6228
690.3912,99.5371
691.3554,99.4378
692.3196,99.3459
693.2839,99.2744
694.2481,99.2227
695.2123,99.1775
696.1766,99.1221
697.1408,99.0482
698.1050,98.9623
699.0693,98.8825
700.0335,98.8252
700.9977,98.7943
701.9620,98.779
702.9262,98.7615
703.8904,98.7283
704.8547,98.6769
705.8189,98.6143
706.7831,98.5503
707.7474,98.491
708.7116,98.4373
709.6758,98.3882
710.6401,98.3443
711.6043,98.3086
712.5685,98.2847
713.5328,98.2742
714.4970,98.2765
715.4612,98.2865
716.4255,98.3425
717.3897,98.4337
718.3539,98.5237
719.3182,98.6035
720.2824,98.6644
721.2466,98.7039
722.2109,98.7283
723.1751,98.7495
724.1393,98.7784
725.1036,98.8196
726.0678,98.8705
727.0320,98.9232
727.9963,98.9701
728.9605,99.0085
729.9247,99.0424
730.8890,99.0799
731.8532,99.1276
732.8174,99.1858
733.7817,99.2466
734.7459,99.2973
735.7101,99.3278
736.6744,99.3368
737.6386,99.3331
738.6028,99.3307
739.5671,99.3401
740.5313,99.3622
741.4955,99.3883
742.4598,99.4069
743.4240,99.4125
744.3882,99.4087
745.3525,99.4057
746.3167,99.4126
747.2809,99.4317
748.2452,99.4592
749.2094,99.4889
750.1736,99.5175
751.1379,99.5451
752.1021,99.5726
753.0663,99.598
754.0306,99.6163
754.9948,99.6221
755.9590,99.6137
756.9233,99.5946
757.8875,99.5714
758.8517,99.5493
759.8160,99.5299
760.7802,99.5118
761.7444,99.4928
762.7087,99.4731
763.6729,99.4561
764.6371,99.4463
765.6014,99.4473
766.5656,99.4598
767.5298,99.4808
768.4941,99.5049
769.4583,99.5257
770.4225,99.5376
771.3868,99.5377
772.3510,99.5272
773.3152,99.5113
774.2795,99.4976
775.2437,99.4929
776.2079,99.4997
777.1722,99.5148
778.1364,99.5312
779.1006,99.5424
780.0649,99.547
781.0291,99.5494
781.9933,99.5571
782.9576,99.5751
783.9218,99.6007
784.8860,99.623
785.8503,99.6283
786.8145,99.6079
787.7787,99.5639
788.7430,99.5096
789.7072,99.4631
790.6714,99.4373
791.6357,99.4331
792.5999,99.4389
793.5641,99.4378
794.5284,99.4162
795.4926,99.3713
796.4568,99.3104
797.4211,99.2453
798.3853,99.1849
799.3495,99.1304
800.3138,99.0763
801.2780,99.0142
802.2422,98.9386
803.2065,98.8502
804.1707,98.757
805.1349,98.6724
806.0992,98.6115
807.0634,98.5862
808.0276,98.6006
808.9919,98.6486
809.9561,98.7166
810.9203,98.7892
811.8846,98.8556
812.8488,98.9129
813.8130,98.9646
814.7773,99.0156
815.7415,99.0683
816.7057,99.1224
817.6700,99.1769
818.6342,99.2328
819.5984,99.2929
820.5627,99.359
821.5269,99.4293
822.4911,99.4987
823.4554,99.5615
824.4196,99.614
825.3839,99.6565
826.3481,99.6911
827.3123,99.7199
828.2766,99.7429
829.2408,99.7586
830.2050,99.7653
831.1693,99.7626
832.1335,99.7522
833.0977,99.7378
834.0620,99.7249
835.0262,99.7188
835.9904,99.7221
836.9547,99.7437
837.9189,99.7671
838.8831,99.7814
839.8474,99.779
840.8116,99.7579
841.7758,99.7217
842.7401,99.6771
843.7043,99.6299
844.6685,99.5819
845.6328,99.5315
846.5970,99.4751
847.5612,99.4097
848.5255,99.3343
849.4897,99.2503
850.4539,99.1607
851.4182,99.0691
852.3824,98.9784
853.3466,98.8907
854.3109,98.8071
855.2751,98.7283
856.2393,98.6555
857.2036,98.5899
858.1678,98.532
859.1320,98.4805
860.0963,98.4319
861.0605,98.3824
862.0247,98.3291
862.9890,98.2717
863.9532,98.2118
864.9174,98.1517
865.8817,98.0933
866.8459,98.0377
867.8101,97.9848
868.7744,97.9334
869.7386,97.8812
870.7028,97.8254
871.6671,97.7642
872.6313,97.6984
873.5955,97.6327
874.5598,97.5723
875.5240,97.5204
876.4882,97.4751
877.4525,97.4307
878.4167,97.3811
879.3809,97.3244
880.3452,97.2634
881.3094,97.203
882.2736,97.1447
883.2379,97.0847
884.2021,97.0155
885.1663,96.9315
886.1306,96.8344
887.0948,96.7322
888.0590,96.6353
889.0233,96.5496
889.9875,96.473
890.9517,96.3977
891.9160,96.3164
892.8802,96.2289
893.8444,96.1434
894.8087,96.0735
895.7729,96.0312
896.7371,96.0217
897.7014,96.0421
898.6656,96.0845
899.6298,96.1397
900.5941,96.201
901.5583,96.2642
902.5225,96.327
903.4868,96.3877
904.4510,96.4455
905.4152,96.5001
906.3795,96.5519
907.3437,96.5995
908.3079,96.6392
909.2722,96.6653
910.2364,96.6727
911.2006,96.6601
912.1649,96.6315
913.1291,96.5942
914.0933,96.5553
915.0576,96.5183
916.0218,96.4813
916.9860,96.4399
917.9503,96.3897
918.9145,96.3288
919.8787,96.2579
920.8430,96.1787
921.8072,96.092
922.7714,95.9981
923.7357,95.8967
924.6999,95.7872
925.6641,95.6694
926.6284,95.5435
927.5926,95.4102
928.5568,95.272
929.5211,95.1336
930.4853,94.9994
931.4495,94.8717
932.4138,94.7477
933.3780,94.6205
934.3422,94.4827
935.3065,94.3316
936.2707,94.1707
937.2349,94.0081
938.1992,93.8512
939.1634,93.702
940.1276,93.557
941.0919,93.4107
942.0561,93.2603
943.0203,93.108
943.9846,92.9585
944.9488,92.8151
945.9130,92.6758
946.8773,92.5338
947.8415,92.3819
948.8057,92.2165
949.7700,92.0391
950.7342,91.8551
951.6984,91.6698
952.6627,91.4853
953.6269,91.3006
954.5911,91.1137
955.5554,90.9245
956.5196,90.7358
957.4838,90.5516
958.4481,90.374
959.4123,90.201
960.3765,90.0262
961.3408,89.8427
962.3050,89.6466
963.2692,89.4398
964.2335,89.2291
965.1977,89.0228
966.1619,88.8249
967.1262,88.6335
968.0904,88.4405
969.0546,88.2354
970.0189,88.0098
970.9831,87.7595
971.9473,87.4856
972.9116,87.1921
973.8758,86.8832
974.8400,86.5618
975.8043,86.2284
976.7685,85.882
977.7327,85.5213
978.6970,85.1467
979.6612,84.7614
980.6254,84.3724
981.5897,83.9888
982.5539,83.6211
983.5181,83.2789
984.4824,82.9687
985.4466,82.6935
986.4108,82.4526
987.3751,82.2424
988.3393,82.0579
989.3035,81.8939
990.2678,81.7455
991.2320,81.608
992.1962,81.4765
993.1605,81.3463
994.1247,81.2135
995.0889,81.076
996.0532,80.9338
997.0174,80.7891
997.9816,80.6448
998.9459,80.503
999.9101,80.3646
1000.8743,80.2291
1001.8386,80.0951
1002.8028,79.9616
1003.7670,79.8284
1004.7313,79.6961
1005.6955,79.5654
1006.6597,79.4363
1007.6240,79.3064
1008.5882,79.1717
1009.5524,79.027
1010.5167,78.8688
1011.4809,78.6971
1012.4451,78.5167
1013.4094,78.3367
1014.3736,78.1671
1015.3378,78.016
1016.3021,77.8865
1017.2663,77.7768
1018.2305,77.682
1019.1948,77.5975
1020.1590,77.523
1021.1232,77.4638
1022.0875,77.4293
1023.0517,77.4288
1024.0160,77.4669
1024.9802,77.5398
1025.9445,77.6363
1026.9087,77.7425
1027.8729,77.8486
1028.8372,77.9543
1029.8014,78.0695
1030.7656,78.2092
1031.7299,78.3874
1032.6941,78.6113
1033.6583,78.8793
1034.6226,79.1825
1035.5868,79.5069
1036.5510,79.8374
1037.5153,80.1599
1038.4795,80.4631
1039.4437,80.7396
1040.4080,80.9849
1041.3722,81.197
1042.3364,81.3745
1043.3007,81.517
1044.2649,81.6257
1045.2291,81.7056
1046.1934,81.766
1047.1576,81.8194
1048.1218,81.878
1049.0861,81.9498
1050.0503,82.0381
1051.0145,82.1426
1051.9788,82.2638
1052.9430,82.4048
1053.9072,82.5709
1054.8715,82.7657
1055.8357,82.9873
1056.7999,83.2282
1057.7642,83.4805
1058.7284,83.7422
1059.6926,84.0218
1060.6569,84.3352
1061.6211,84.6965
1062.5853,85.108
1063.5496,85.5544
1064.5138,86.0061
1065.4780,86.4301
1066.4423,86.805
1067.4065,87.1297
1068.3707,87.4204
1069.3350,87.6992
1070.2992,87.9829
1071.2634,88.2772
1072.2277,88.5791
1073.1919,88.8818
1074.1561,89.1791
1075.1204,89.4667
1076.0846,89.7408
1077.0488,89.9963
1078.0131,90.2277
1078.9773,90.4303
1079.9415,90.6027
1080.9058,90.7473
1081.8700,90.8694
1082.8342,90.975
1083.7985,91.0682
1084.7627,91.1502
1085.7269,91.2186
1086.6912,91.2693
1087.6554,91.2996
1088.6196,91.3114
1089.5839,91.3122
1090.5481,91.3134
1091.5123,91.3259
1092.4766,91.3562
1093.4408,91.4044
1094.4050,91.4662
1095.3693,91.5357
1096.3335,91.6079
1097.2977,91.6787
1098.2620,91.7443
1099.2262,91.801
1100.1904,91.8462
1101.1547,91.8814
1102.1189,91.9127
1103.0831,91.9494
1104.0474,92.0005
1105.0116,92.0707
1105.9758,92.1598
1106.9401,92.2649
1107.9043,92.3829
1108.8685,92.5139
1109.8328,92.6604
1110.7970,92.8254
1111.7612,93.0103
1112.7255,93.2127
1113.6897,93.427
1114.6539,93.6453
1115.6182,93.8589
1116.5824,94.0603
1117.5466,94.2438
1118.5109,94.4066
1119.4751,94.5491
1120.4393,94.6741
1121.4036,94.7865
1122.3678,94.8916
1123.3320,94.9942
1124.2963,95.0974
1125.2605,95.2022
1126.2247,95.3074
1127.1890,95.4105
1128.1532,95.5089
1129.1174,95.6003
1130.0817,95.6834
1131.0459,95.7568
1132.0101,95.8181
1132.9744,95.864
1133.9386,95.8914
1134.9028,95.8992
1135.8671,95.8897
1136.8313,95.8681
1137.7955,95.8409
1138.7598,95.8129
1139.7240,95.7861
1140.6882,95.7593
1141.6525,95.7304
1142.6167,95.6983
1143.5809,95.6636
1144.5452,95.6284
1145.5094,95.5947
1146.4736,95.5622
1147.4379,95.5283
1148.4021,95.4898
1149.3663,95.4445
1150.3306,95.3934
1151.2948,95.3408
1152.2590,95.2927
1153.2233,95.2545
1154.1875,95.2297
1155.1517,95.2197
1156.1160,95.2257
1157.0802,95.2493
1158.0444,95.2939
1159.0087,95.364
1159.9729,95.4641
1160.9371,95.5982
1161.9014,95.7692
1162.8656,95.9781
1163.8298,96.2238
1164.7941,96.5018
1165.7583,96.8048
1166.7225,97.1239
1167.6868,97.4501
1168.6510,97.7755
1169.6152,98.0938
1170.5795,98.3988
1171.5437,98.6841
1172.5079,98.9435
1173.4722,99.1727
1174.4364,99.3706
1175.4006,99.5398
1176.3649,99.6846
1177.3291,99.8088
1178.2933,99.9141
1179.2576,99.9999
1180.2218,100.065
1181.1860,100.109
1182.1503,100.132
1183.1145,100.136
1184.0787,100.124
1185.0430,100.098
1186.0072,100.071
1186.9714,100.031
1187.9357,99.9771
1188.8999,99.9104
1189.8641,99.8323
1190.8284,99.7448
1191.7926,99.6496
1192.7568,99.5477
1193.7211,99.4381
1194.6853,99.3196
1195.6495,99.192
1196.6138,99.0571
1197.5780,98.9184
1198.5422,98.7794
1199.5065,98.6111
1200.4707,98.4771
1201.4349,98.3422
1202.3992,98.2065
1203.3634,98.0731
1204.3276,97.9481
1205.2919,97.8372
1206.2561,97.7435
1207.2203,97.6666
1208.1846,97.6027
1209.1488,97.5467
1210.1130,97.4932
1211.0773,97.4383
1212.0415,97.3795
1213.0057,97.3165
1213.9700,97.2509
1214.9342,97.1854
1215.8984,97.1227
1216.8627,97.0635
1217.8269,97.0068
1218.7911,96.9505
1219.7554,96.893
1220.7196,96.834
1221.6838,96.7742
1222.6481,96.715
1223.6123,96.6569
1224.5765,96.6001
1225.5408,96.5441
1226.5050,96.4893
1227.4692,96.4364
1228.4335,96.3869
1229.3977,96.3425
1230.3619,96.3043
1231.3262,96.2722
1232.2904,96.2446
1233.2546,96.2184
1234.2189,96.1908
1235.1831,96.1607
1236.1473,96.13
1237.1116,96.1022
1238.0758,96.08
1239.0400,96.062
1240.0043,96.0427
1240.9685,96.0144
1241.9327,95.9722
1242.8970,95.9173
1243.8612,95.8567
1244.8254,95.7995
1245.7897,95.7511
1246.7539,95.7104
1247.7181,95.6704
1248.6824,95.6224
1249.6466,95.5609
1250.6108,95.4853
1251.5751,95.3993
1252.5393,95.3081
1253.5035,95.2161
1254.4678,95.126
1255.4320,95.0395
1256.3962,94.9581
1257.3605,94.8836
1258.3247,94.8177
1259.2889,94.7612
1260.2532,94.7145
1261.2174,94.6775
1262.1816,94.6507
1263.1459,94.6352
1264.1101,94.6321
1265.0743,94.6422
1266.0386,94.666
1267.0028,94.7045
1267.9670,94.7599
1268.9313,94.835
1269.8955,94.9315
1270.8597,95.0492
1271.8240,95.1844
1272.7882,95.3316
1273.7524,95.4854
1274.7167,95.6419
1275.6809,95.7994
1276.6451,95.9567
1277.6094,96.1119
1278.5736,96.2627
1279.5378,96.4072
1280.5021,96.5449
1281.4663,96.6771
1282.4305,96.8065
1283.3948,96.9354
1284.3590,97.0644
1285.3232,97.1921
1286.2875,97.3149
1287.2517,97.4282
1288.2159,97.5278
1289.1802,97.6115
1290.1444,97.6794
1291.1086,97.7339
1292.0729,97.7782
1293.0371,97.8146
1294.0013,97.8436
1294.9656,97.8643
1295.9298,97.875
1296.8940,97.8746
1297.8583,97.8626
1298.8225,97.8397
1299.7867,97.807
1300.7510,97.7662
1301.7152,97.7195
1302.6794,97.6691
1303.6437,97.6164
1304.6079,97.562
1305.5721,97.5059
1306.5364,97.4478
1307.5006,97.3881
1308.4648,97.3279
1309.4291,97.2685
1310.3933,97.2115
1311.3575,97.1586
1312.3218,97.1115
1313.2860,97.0725
1314.2502,97.0441
1315.2145,97.0286
1316.1787,97.0273
1317.1429,97.0405
1318.1072,97.0672
1319.0714,97.1052
1320.0356,97.1516
1320.9999,97.2029
1321.9641,97.2552
1322.9283,97.3047
1323.8926,97.3475
1324.8568,97.3807
1325.8210,97.4032
1326.7853,97.416
1327.7495,97.4217
1328.7137,97.4237
1329.6780,97.4247
1330.6422,97.4264
1331.6064,97.4298
1332.5707,97.4357
1333.5349,97.4458
1334.4991,97.4634
1335.4634,97.4932
1336.4276,97.5396
1337.3918,97.6027
1338.3561,97.6745
1339.3203,97.7414
1340.2845,97.794
1341.2488,97.8334
1342.2130,97.8674
1343.1772,97.902
1344.1415,97.9385
1345.1057,97.9737
1346.0699,98.0018
1347.0342,98.0169
1347.9984,98.0154
1348.9626,97.9978
1349.9269,97.968
1350.8911,97.9309
1351.8553,97.8904
1352.8196,97.848
1353.7838,97.8035
1354.7480,97.7553
1355.7123,97.7025
1356.6765,97.646
1357.6407,97.5885
1358.6050,97.5346
1359.5692,97.49
1360.5334,97.4584
1361.4977,97.437
1362.4619,97.4178
1363.4261,97.3957
1364.3904,97.3731
1365.3546,97.3553
1366.3188,97.3451
1367.2831,97.3432
1368.2473,97.3498
1369.2115,97.3663
1370.1758,97.397
1371.1400,97.4497
1372.1042,97.5326
1373.0685,97.6468
1374.0327,97.7803
1374.9969,97.9121
1375.9612,98.0278
1376.9254,98.129
1377.8896,98.2274
1378.8539,98.334
1379.8181,98.451
1380.7823,98.571
1381.7466,98.6822
1382.7108,98.7777
1383.6750,98.8606
1384.6393,98.9431
1385.6035,99.0376
1386.5677,99.1462
1387.5320,99.2588
1388.4962,99.3649
1389.4604,99.463
1390.4247,99.5557
1391.3889,99.6258
1392.3531,99.6909
1393.3174,99.7497
1394.2816,99.7894
1395.2458,99.7951
1396.2101,99.7643
1397.1743,99.7109
1398.1385,99.6536
1399.1028,99.6037
1400.0670,99.5633
1401.0313,99.5296
1401.9955,99.4987
1402.9597,99.4666
1403.9240,99.4279
1404.8882,99.375
1405.8524,99.3029
1406.8167,99.2125
1407.7809,99.109
1408.7451,98.9964
1409.7094,98.8752
1410.6736,98.745
1411.6378,98.6079
1412.6021,98.4679
1413.5663,98.3288
1414.5305,98.1927
1415.4948,98.0618
1416.4590,97.9406
1417.4232,97.8295
1418.3875,97.7226
1419.3517,97.6204
1420.3159,97.5389
1421.2802,97.4906
1422.2444,97.4716
1423.2086,97.4692
1424.1729,97.4722
1425.1371,97.475
1426.1013,97.4795
1427.0656,97.4934
1428.0298,97.526
1428.9940,97.5796
1429.9583,97.6438
1430.9225,97.7002
1431.8867,97.7356
1432.8510,97.7516
1433.8152,97.7661
1434.7794,97.8041
1435.7437,97.8766
1436.7079,97.964
1437.6721,98.0357
1438.6364,98.0812
1439.6006,98.104
1440.5648,98.1053
1441.5291,98.0836
1442.4933,98.0403
1443.4575,97.981
1444.4218,97.9136
1445.3860,97.8453
1446.3502,97.7811
1447.3145,97.724
1448.2787,97.6765
1449.2429,97.6411
1450.2072,97.6177
1451.1714,97.5994
1452.1356,97.5766
1453.0999,97.5498
1454.0641,97.5445
1455.0283,97.6116
1455.9926,97.7789
1456.9568,97.9606
1457.9210,98.0295
1458.8853,98.0101
1459.8495,97.9841
1460.8137,97.9721
1461.7780,97.9714
1462.7422,97.9936
1463.7064,98.0582
1464.6707,98.1641
1465.6349,98.2798
1466.5991,98.3726
1467.5634,98.4312
1468.5276,98.4642
1469.4918,98.4985
1470.4561,98.5779
1471.4203,98.7428
1472.3845,98.9788
1473.3488,99.1978
1474.3130,99.3315
1475.2772,99.3998
1476.2415,99.4489
1477.2057,99.4989
1478.1699,99.5493
1479.1342,99.5946
1480.0984,99.629
1481.0626,99.6477
1482.0269,99.647
1482.9911,99.6261
1483.9553,99.5885
1484.9196,99.5442
1485.8838,99.5102
1486.8480,99.5049
1487.8123,99.5271
1488.7765,99.5352
1489.7407,99.4805
1490.7050,99.37
1491.6692,99.2436
1492.6334,99.1196
1493.5977,98.9954
1494.5619,98.8682
1495.5261,98.7381
1496.4904,98.5954
1497.4546,98.4193
1498.4188,98.2085
1499.3831,97.9904
1500.3473,97.7835
1501.3115,97.5796
1502.2758,97.3653
1503.2400,97.147
1504.2042,96.9671
1505.1685,96.8991
1506.1327,96.9716
1507.0969,97.0491
1508.0612,96.9986
1509.0254,96.9163
1509.9896,96.8944
1510.9539,96.9248
1511.9181,96.9852
1512.8823,97.077
1513.8466,97.2194
1514.8108,97.4263
1515.7750,97.6853
1516.7393,97.9592
1517.7035,98.2149
1518.6677,98.4516
1519.6320,98.6942
1520.5962,98.9572
1521.5604,99.2181
1522.5247,99.4349
1523.4889,99.5872
1524.4531,99.6846
1525.4174,99.7481
1526.3816,99.793
1527.3458,99.8235
1528.3101,99.8374
1529.2743,99.8348
1530.2385,99.825
1531.2028,99.8258
1532.1670,99.8485
1533.1312,99.8796
1534.0955,99.8878
1535.0597,99.8529
1536.0239,99.7795
1536.9882,99.6991
1537.9524,99.6794
1538.9166,99.8149
1539.8809,100.121
1540.8451,100.378
1541.8093,100.367
1542.7736,100.211
1543.7378,100.059
1544.7020,99.9535
1545.6663,99.8837
1546.6305,99.8343
1547.5947,99.7955
1548.5590,99.7619
1549.5232,99.7308
1550.4874,99.7009
1551.4517,99.6702
1552.4159,99.6343
1553.3801,99.5883
1554.3444,99.5349
1555.3086,99.4971
1556.2728,99.529
1557.2371,99.6732
1558.2013,99.8219
1559.1655,99.776
1560.1298,99.6192
1561.0940,99.5281
1562.0582,99.5104
1563.0225,99.509
1563.9867,99.4878
1564.9509,99.4416
1565.9152,99.3832
1566.8794,99.3286
1567.8436,99.2806
1568.8079,99.225
1569.7721,99.1491
1570.7363,99.0585
1571.7006,98.9648
1572.6648,98.8733
1573.6290,98.7892
1574.5933,98.7199
1575.5575,98.66
1576.5217,98.5867
1577.4860,98.4939
1578.4502,98.4004
1579.4144,98.3135
1580.3787,98.2231
1581.3429,98.122
1582.3071,98.0142
1583.2714,97.91
1584.2356,97.8171
1585.1998,97.7365
1586.1641,97.6648
1587.1283,97.5982
1588.0925,97.5357
1589.0568,97.4783
1590.0210,97.4275
1590.9852,97.384
1591.9495,97.3474
1592.9137,97.316
1593.8779,97.2869
1594.8422,97.2561
1595.8064,97.2214
1596.7706,97.1835
1597.7349,97.1464
1598.6991,97.1147
1599.6633,97.0913
1600.6276,97.0761
1601.5918,97.0666
1602.5560,97.0594
1603.5203,97.0528
1604.4845,97.0479
1605.4487,97.0478
1606.4130,97.0556
1607.3772,97.0726
1608.3414,97.095
1609.3057,97.1143
1610.2699,97.1216
1611.2341,97.1117
1612.1984,97.0861
1613.1626,97.0571
1614.1268,97.0488
1615.0911,97.083
1616.0553,97.1509
1617.0195,97.2128
1617.9838,97.2461
1618.9480,97.2595
1619.9122,97.2666
1620.8765,97.2774
1621.8407,97.2998
1622.8049,97.3327
1623.7692,97.3624
1624.7334,97.3757
1625.6976,97.3739
1626.6619,97.3674
1627.6261,97.3639
1628.5903,97.3613
1629.5546,97.3495
1630.5188,97.317
1631.4830,97.2605
1632.4473,97.1959
1633.4115,97.1631
1634.3757,97.2044
1635.3400,97.3056
1636.3042,97.3835
1637.2684,97.3984
1638.2327,97.3859
1639.1969,97.3735
1640.1611,97.3574
1641.1254,97.3262
1642.0896,97.2768
1643.0538,97.2241
1644.0181,97.2037
1644.9823,97.2535
1645.9465,97.364
1646.9108,97.4553
1647.8750,97.4597
1648.8392,97.3817
1649.8035,97.2617
1650.7677,97.1583
1651.7319,97.1497
1652.6962,97.2594
1653.6604,97.3716
1654.6246,97.4132
1655.5889,97.4436
1656.5531,97.4843
1657.5173,97.5122
1658.4816,97.5168
1659.4458,97.5138
1660.4100,97.5312
1661.3743,97.582
1662.3385,97.6481
1663.3027,97.7
1664.2670,97.7249
1665.2312,97.7304
1666.1954,97.7372
1667.1597,97.7757
1668.1239,97.8722
1669.0881,98.0161
1670.0524,98.152
1671.0166,98.2312
1671.9808,98.2544
1672.9451,98.2519
1673.9093,98.2532
1674.8735,98.2749
1675.8378,98.3167
1676.8020,98.3655
1677.7662,98.4038
1678.7305,98.4162
1679.6947,98.3976
1680.6589,98.3645
1681.6232,98.3553
1682.5874,98.4015
1683.5516,98.4731
1684.5159,98.5027
1685.4801,98.4941
1686.4443,98.4944
1687.4086,98.5131
1688.3728,98.5313
1689.3370,98.5297
1690.3013,98.4996
1691.2655,98.4434
1692.2297,98.374
1693.1940,98.3122
1694.1582,98.2821
1695.1224,98.2995
1696.0867,98.3579
1697.0509,98.4244
1698.0151,98.4613
1698.9794,98.4622
1699.9436,98.4599
1700.9078,98.4914
1701.8721,98.5635
1702.8363,98.6544
1703.8005,98.7362
1704.7648,98.7892
1705.7290,98.8058
1706.6932,98.7897
1707.6575,98.7529
1708.6217,98.7073
1709.5859,98.6569
1710.5502,98.5992
1711.5144,98.5323
1712.4786,98.4615
1713.4429,98.4026
1714.4071,98.3763
1715.3713,98.388
1716.3356,98.3971
1717.2998,98.3468
1718.2640,98.2502
1719.2283,98.1676
1720.1925,98.1211
1721.1567,98.0933
1722.1210,98.0626
1723.0852,98.0189
1724.0494,97.9641
1725.0137,97.9063
1725.9779,97.8543
1726.9421,97.8112
1727.9064,97.7733
1728.8706,97.7343
1729.8348,97.6943
1730.7991,97.667
1731.7633,97.6759
1732.7275,97.7303
1733.6918,97.8061
1734.6560,97.8738
1735.6202,97.9309
1736.5845,97.984
1737.5487,98.0349
1738.5129,98.0871
1739.4772,98.1466
1740.4414,98.2152
1741.4056,98.2868
1742.3699,98.3532
1743.3341,98.4113
1744.2983,98.4626
1745.2626,98.5104
1746.2268,98.5603
1747.1910,98.6184
1748.1553,98.686
1749.1195,98.7528
1750.0837,98.8055
1751.0480,98.8447
1752.0122,98.8826
1752.9764,98.9282
1753.9407,98.9823
1754.9049,99.0428
1755.8691,99.1059
1756.8334,99.1663
1757.7976,99.2196
1758.7618,99.2664
1759.7261,99.3128
1760.6903,99.3641
1761.6545,99.418
1762.6188,99.4648
1763.5830,99.4957
1764.5472,99.5086
1765.5115,99.5081
1766.4757,99.5037
1767.4399,99.5079
1768.4042,99.5334
1769.3684,99.5889
1770.3326,99.6717
1771.2969,99.7601
1772.2611,99.8223
1773.2253,99.8445
1774.1896,99.8401
1775.1538,99.8328
1776.1180,99.8278
1777.0823,99.8257
1778.0465,99.8288
1779.0107,99.8377
1779.9750,99.8492
1780.9392,99.8572
1781.9034,99.8589
1782.8677,99.8573
1783.8319,99.8575
1784.7961,99.8612
1785.7604,99.8642
1786.7246,99.8598
1787.6888,99.8443
1788.6531,99.8237
1789.6173,99.8143
1790.5815,99.8339
1791.5458,99.8818
1792.5100,99.9332
1793.4742,99.9645
1794.4385,99.9732
1795.4027,99.9672
1796.3669,99.9535
1797.3312,99.9393
1798.2954,99.9329
1799.2596,99.9391
1800.2239,99.9539
1801.1881,99.9685
1802.1523,99.9764
1803.1166,99.9767
1804.0808,99.9714
1805.0450,99.9629
1806.0093,99.9536
1806.9735,99.9474
1807.9377,99.9482
1808.9020,99.9574
1809.8662,99.9716
1810.8304,99.9841
1811.7947,99.9893
1812.7589,99.9858
1813.7231,99.9759
1814.6874,99.9636
1815.6516,99.9533
1816.6158,99.9477
1817.5801,99.9462
1818.5443,99.9453
1819.5085,99.9411
1820.4728,99.932
1821.4370,99.9204
1822.4012,99.9109
1823.3655,99.9075
1824.3297,99.9109
1825.2939,99.9193
1826.2582,99.9315
1827.2224,99.9481
1828.1866,99.9683
1829.1509,99.9868
1830.1151,99.9958
1831.0793,99.9932
1832.0436,99.9847
1833.0078,99.9769
1833.9720,99.9733
1834.9363,99.975
1835.9005,99.9802
1836.8647,99.9831
1837.8290,99.9753
1838.7932,99.9519
1839.7574,99.915
1840.7217,99.8754
1841.6859,99.8507
1842.6501,99.857
1843.6144,99.8938
1844.5786,99.9411
1845.5428,99.9771
1846.5071,99.995
1847.4713,99.9982
1848.4355,99.9924
1849.3998,99.9822
1850.3640,99.9719
1851.3282,99.9642
1852.2925,99.9596
1853.2567,99.9569
1854.2209,99.9546
1855.1852,99.9522
1856.1494,99.9493
1857.1136,99.9462
1858.0779,99.943
1859.0421,99.9399
1860.0063,99.937
1860.9706,99.9342
1861.9348,99.931
1862.8990,99.9271
1863.8633,99.9235
1864.8275,99.9244
1865.7917,99.9366
1866.7560,99.9635
1867.7202,99.9966
1868.6844,100.018
1869.6487,100.019
1870.6129,100.007
1871.5771,99.9918
1872.5414,99.9802
1873.5056,99.9726
1874.4698,99.9683
1875.4341,99.9664
1876.3983,99.9655
1877.3625,99.9641
1878.3268,99.9622
1879.2910,99.9617
1880.2552,99.9641
1881.2195,99.9696
1882.1837,99.9754
1883.1479,99.9778
1884.1122,99.9743
1885.0764,99.9664
1886.0406,99.959
1887.0049,99.9576
1887.9691,99.9647
1888.9333,99.9769
1889.8976,99.988
1890.8618,99.9936
1891.8260,99.9943
1892.7903,99.9937
1893.7545,99.9951
1894.7188,99.9989
1895.6830,100.003
1896.6472,100.003
1897.6115,99.9993
1898.5757,99.9924
1899.5399,99.9861
1900.5042,99.9831
1901.4684,99.984
1902.4326,99.9874
1903.3969,99.9914
1904.3611,99.9952
1905.3253,99.9999
1906.2896,100.007
1907.2538,100.019
1908.2180,100.033
1909.1823,100.045
1910.1465,100.051
1911.1107,100.046
1912.0750,100.032
1913.0392,100.012
1914.0034,99.9917
1914.9677,99.9761
1915.9319,99.9698
1916.8961,99.9732
1917.8604,99.983
1918.8246,99.9954
1919.7888,100.009
1920.7531,100.025
1921.7173,100.042
1922.6815,100.058
1923.6458,100.067
1924.6100,100.065
1925.5742,100.054
1926.5385,100.038
1927.5027,100.022
1928.4669,100.01
1929.4312,100.004
1930.3954,100.003
1931.3596,100.004
1932.3239,100.006
1933.2881,100.009
1934.2523,100.012
1935.2166,100.014
1936.1808,100.012
1937.1450,100.005
1938.1093,99.9949
1939.0735,99.9859
1940.0377,99.9838
1941.0020,99.9923
1941.9662,100.009
1942.9304,100.028
1943.8947,100.04
1944.8589,100.044
1945.8231,100.041
1946.7874,100.033
1947.7516,100.023
1948.7158,100.014
1949.6801,100.006
1950.6443,100
1951.6085,99.997
1952.5728,99.9969
1953.5370,99.999
1954.5012,100.002
1955.4655,100.003
1956.4297,100.002
1957.3939,100.001
1958.3582,99.9991
1959.3224,99.9985
1960.2866,99.9983
1961.2509,99.9975
1962.2151,99.9959
1963.1793,99.9943
1964.1436,99.9943
1965.1078,99.9965
1966.0720,99.9993
1967.0363,99.9994
1968.0005,99.9944
1968.9647,99.9852
1969.9290,99.9754
1970.8932,99.9689
1971.8574,99.968
1972.8217,99.972
1973.7859,99.9782
1974.7501,99.9828
1975.7144,99.9839
1976.6786,99.9816
1977.6428,99.9779
1978.6071,99.9744
1979.5713,99.9717
1980.5355,99.9693
1981.4998,99.9664
1982.4640,99.9635
1983.4282,99.9616
1984.3925,99.962
1985.3567,99.9641
1986.3209,99.9666
1987.2852,99.9679
1988.2494,99.9674
1989.2136,99.9663
1990.1779,99.9662
1991.1421,99.9679
1992.1063,99.9705
1993.0706,99.9724
1994.0348,99.9727
1994.9990,99.9711
1995.9633,99.9686
1996.9275,99.9661
1997.8917,99.9645
1998.8560,99.9637
1999.8202,99.9632
2000.7844,99.9621
2001.7487,99.96
2002.7129,99.9566
2003.6771,99.9524
2004.6414,99.9482
2005.6056,99.945
2006.5698,99.9433
2007.5341,99.9426
2008.4983,99.9417
2009.4625,99.9386
2010.4268,99.9324
2011.3910,99.9237
2012.3552,99.9153
2013.3195,99.9107
2014.2837,99.9123
2015.2479,99.9205
2016.2122,99.9322
2017.1764,99.9429
2018.1406,99.9487
2019.1049,99.948
2020.0691,99.9426
2021.0333,99.9351
2021.9976,99.9282
2022.9618,99.9231
2023.9260,99.9196
2024.8903,99.9166
2025.8545,99.9131
2026.8187,99.9089
2027.7830,99.9048
2028.7472,99.9018
2029.7114,99.9006
2030.6757,99.9009
2031.6399,99.9023
2032.6041,99.9036
2033.5684,99.9043
2034.5326,99.904
2035.4968,99.9032
2036.4611,99.9019
2037.4253,99.9002
2038.3895,99.8981
2039.3538,99.8955
2040.3180,99.8925
2041.2822,99.8899
2042.2465,99.8884
2043.2107,99.8887
2044.1749,99.8903
2045.1392,99.8921
2046.1034,99.8922
2047.0676,99.8897
2048.0320,99.8846
2048.9961,99.8783
2049.9604,99.8728
2050.9246,99.8697
2051.8889,99.8695
2052.8530,99.8712
2053.8174,99.8737
2054.7815,99.8758
2055.7458,99.8772
2056.7100,99.8781
2057.6743,99.8788
2058.6384,99.8796
2059.6028,99.8806
2060.5669,99.8817
2061.5313,99.8831
2062.4954,99.885
2063.4597,99.887
2064.4238,99.8884
2065.3882,99.8884
2066.3523,99.8863
2067.3167,99.8827
2068.2808,99.8787
2069.2451,99.8757
2070.2092,99.8746
2071.1736,99.8758
2072.1377,99.8788
2073.1021,99.8824
2074.0662,99.8856
2075.0305,99.8874
2075.9946,99.8871
2076.9590,99.8843
2077.9231,99.8794
2078.8875,99.8731
2079.8516,99.8673
2080.8159,99.8637
2081.7800,99.8639
2082.7444,99.8682
2083.7085,99.8755
2084.6729,99.8837
2085.6370,99.8903
2086.6013,99.8937
2087.5654,99.8935
2088.5298,99.8904
2089.4939,99.8859
2090.4583,99.8816
2091.4224,99.8785
2092.3867,99.877
2093.3508,99.877
2094.3152,99.8779
2095.2793,99.8787
2096.2437,99.8785
2097.2078,99.8765
2098.1721,99.8729
2099.1362,99.8689
2100.1006,99.8671
2101.0647,99.8684
2102.0291,99.8734
2102.9932,99.8804
2103.9575,99.8862
2104.9216,99.8882
2105.8860,99.8861
2106.8501,99.8814
2107.8145,99.8772
2108.7786,99.8758
2109.7429,99.8776
2110.7070,99.8813
2111.6714,99.8845
2112.6355,99.8855
2113.5999,99.8839
2114.5640,99.8804
2115.5283,99.8762
2116.4924,99.8722
2117.4568,99.869
2118.4209,99.867
2119.3853,99.8661
2120.3494,99.8663
2121.3137,99.8669
2122.2778,99.8675
2123.2422,99.8675
2124.2063,99.8672
2125.1707,99.8676
2126.1348,99.8694
2127.0991,99.8728
2128.0632,99.8765
2129.0276,99.8789
2129.9917,99.8785
2130.9561,99.875
2131.9202,99.8703
2132.8845,99.8669
2133.8486,99.8672
2134.8130,99.8715
2135.7771,99.8782
2136.7415,99.8842
2137.7056,99.8871
2138.6699,99.8859
2139.6340,99.8819
2140.5984,99.877
2141.5625,99.8726
2142.5269,99.8689
2143.4910,99.8656
2144.4553,99.8629
2145.4194,99.8621
2146.3838,99.865
2147.3479,99.8721
2148.3123,99.8822
2149.2764,99.8921
2150.2407,99.8983
2151.2048,99.8995
2152.1692,99.8966
2153.1333,99.8924
2154.0977,99.8895
2155.0618,99.8895
2156.0261,99.892
2156.9902,99.8957
2157.9546,99.8996
2158.9187,99.903
2159.8831,99.9059
2160.8472,99.9086
2161.8115,99.9111
2162.7756,99.9133
2163.7400,99.9152
2164.7041,99.9169
2165.6685,99.9187
2166.6326,99.9206
2167.5969,99.9223
2168.5610,99.9233
2169.5254,99.9231
2170.4895,99.9216
2171.4539,99.9192
2172.4180,99.9168
2173.3823,99.915
2174.3464,99.9143
2175.3108,99.9146
2176.2749,99.9155
2177.2393,99.9172
2178.2034,99.92
2179.1677,99.9247
2180.1318,99.9314
2181.0962,99.9393
2182.0603,99.9467
2183.0247,99.9518
2183.9888,99.9539
2184.9531,99.9531
2185.9172,99.9509
2186.8816,99.9487
2187.8457,99.9478
2188.8101,99.9489
2189.7742,99.952
2190.7385,99.9566
2191.7026,99.962
2192.6670,99.9668
2193.6311,99.97
2194.5955,99.9709
2195.5596,99.97
2196.5239,99.9688
2197.4880,99.9685
2198.4524,99.9702
2199.4165,99.9734
2200.3809,99.9771
2201.3450,99.9798
2202.3093,99.9809
2203.2734,99.9804
2204.2378,99.979
2205.2019,99.9775
2206.1663,99.9764
2207.1304,99.9763
2208.0947,99.9775
2209.0588,99.9799
2210.0232,99.9834
2210.9873,99.987
2211.9517,99.9893
2212.9158,99.989
2213.8801,99.9856
2214.8442,99.9802
2215.8086,99.9749
2216.7727,99.9723
2217.7371,99.9741
2218.7012,99.9804
2219.6655,99.9894
2220.6296,99.9983
2221.5940,100.004
2222.5581,100.006
2223.5225,100.003
2224.4866,99.9987
2225.4509,99.9936
2226.4150,99.9895
2227.3794,99.9864
2228.3435,99.9841
2229.3079,99.9822
2230.2720,99.9811
2231.2363,99.9818
2232.2004,99.9853
2233.1648,99.9912
2234.1289,99.9978
2235.0933,100.002
2236.0574,100.003
2237.0217,99.9982
2237.9858,99.9907
2238.9502,99.9833
2239.9143,99.9784
2240.8787,99.9774
2241.8428,99.9793
2242.8071,99.9825
2243.7712,99.9851
2244.7356,99.9864
2245.6997,99.9862
2246.6641,99.985
2247.6282,99.9825
2248.5925,99.9786
2249.5566,99.9731
2250.5210,99.9663
2251.4851,99.959
2252.4495,99.952
2253.4136,99.9457
2254.3779,99.9399
2255.3420,99.9341
2256.3064,99.9284
2257.2705,99.923
2258.2349,99.9187
2259.1990,99.916
2260.1633,99.9151
2261.1274,99.916
2262.0918,99.9182
2263.0559,99.9212
2264.0203,99.924
2264.9844,99.9255
2265.9487,99.9247
2266.9128,99.9211
2267.8772,99.9151
2268.8413,99.9077
2269.8057,99.9003
2270.7698,99.8939
2271.7341,99.8894
2272.6982,99.887
2273.6626,99.8872
2274.6267,99.8901
2275.5911,99.8955
2276.5552,99.9022
2277.5195,99.9083
2278.4836,99.9118
2279.4480,99.9114
2280.4121,99.9065
2281.3765,99.8977
2282.3406,99.8856
2283.3049,99.8524
2284.2690,99.8159
2285.2334,99.7761
2286.1975,99.7332
2287.1619,99.6881
2288.1260,99.6418
2289.0903,99.5953
2290.0544,99.5489
2291.0188,99.5022
2291.9829,99.4542
2292.9473,99.4041
2293.9114,99.3516
2294.8757,99.2973
2295.8398,99.2421
2296.8042,99.1862
2297.7683,99.129
2298.7327,99.0682
2299.6968,99.0011
2300.6611,98.9254
2301.6252,98.8411
2302.5896,98.75
2303.5537,98.6557
2304.5181,98.5616
2305.4822,98.4697
2306.4465,98.3798
2307.4106,98.2903
2308.3750,98.1994
2309.3391,98.1068
2310.3035,98.0137
2311.2676,97.9219
2312.2319,97.832
2313.1960,97.7421
2314.1604,97.6488
2315.1245,97.5488
2316.0889,97.4414
2317.0530,97.3294
2318.0173,97.219
2318.9814,97.1175
2319.9458,97.0321
2320.9099,96.9686
2321.8743,96.9315
2322.8384,96.9234
2323.8027,96.9433
2324.7668,96.9844
2325.7312,97.0347
2326.6953,97.0803
2327.6597,97.1103
2328.6238,97.1221
2329.5881,97.1222
2330.5522,97.1233
2331.5166,97.1362
2332.4807,97.1632
2333.4451,97.1976
2334.4092,97.2305
2335.3735,97.2577
2336.3376,97.2822
2337.3020,97.3097
2338.2661,97.3432
2339.2305,97.3807
2340.1946,97.4154
2341.1589,97.4314
2342.1230,97.3992
2343.0874,97.2922
2344.0515,97.1314
2345.0159,96.9906
2345.9800,96.9222
2346.9443,96.9091
2347.9084,96.895
2348.8728,96.8376
2349.8369,96.7378
2350.8013,96.6457
2351.7654,96.6444
2352.7297,96.8086
2353.6938,97.1489
2354.6582,97.5962
2355.6223,98.0658
2356.5867,98.5251
2357.5508,98.9733
2358.5151,99.3779
2359.4792,99.6641
2360.4436,99.7693
2361.4077,99.6866
2362.3721,99.4838
2363.3362,99.1958
2364.3005,98.8339
2365.2646,98.4383
2366.2290,98.0491
2367.1931,97.6981
2368.1575,97.4043
2369.1216,97.1767
2370.0859,97.0184
2371.0500,96.9291
2372.0144,96.9061
2372.9785,96.945
2373.9429,97.0412
2374.9070,97.1886
2375.8713,97.3792
2376.8354,97.6016
2377.7998,97.842
2378.7639,98.0864
2379.7283,98.3231
2380.6924,98.5438
2381.6567,98.744
2382.6208,98.922
2383.5852,99.0773
2384.5493,99.2106
2385.5137,99.3231
2386.4778,99.4168
2387.4421,99.4944
2388.4063,99.5593
2389.3706,99.6149
2390.3347,99.6642
2391.2991,99.6937
2392.2632,99.6975
2393.2275,99.702
2394.1917,99.7085
2395.1560,99.7169
2396.1201,99.7257
2397.0845,99.732
2398.0486,99.7337
2399.0129,99.7301
2399.9771,99.7236
2400.9414,99.7182
2401.9055,99.7176
2402.8699,99.7232
2403.8340,99.7332
2404.7983,99.7441
2405.7625,99.7524
2406.7268,99.7564
2407.6909,99.7568
2408.6553,99.755
2409.6194,99.7525
2410.5837,99.7499
2411.5479,99.7475
2412.5122,99.7453
2413.4763,99.7439
2414.4407,99.7438
2415.4048,99.7447
2416.3691,99.7459
2417.3333,99.7469
2418.2976,99.7474
2419.2617,99.7477
2420.2261,99.7482
2421.1902,99.7486
2422.1545,99.748
2423.1187,99.7456
2424.0830,99.7416
2425.0471,99.7373
2426.0115,99.7347
2426.9756,99.7354
2427.9399,99.7397
2428.9041,99.7462
2429.8684,99.7531
2430.8325,99.7582
2431.7969,99.7607
2432.7610,99.7608
2433.7253,99.7594
2434.6895,99.7577
2435.6538,99.7562
2436.6179,99.7549
2437.5823,99.7533
2438.5464,99.7509
2439.5107,99.7479
2440.4749,99.7453
2441.4392,99.7446
2442.4033,99.7465
2443.3677,99.7513
2444.3318,99.7577
2445.2961,99.7643
2446.2603,99.7697
2447.2246,99.7732
2448.1887,99.7751
2449.1531,99.7763
2450.1172,99.7774
2451.0815,99.7785
2452.0457,99.7794
2453.0100,99.7791
2453.9741,99.7775
2454.9385,99.7752
2455.9026,99.7733
2456.8669,99.7729
2457.8311,99.7744
2458.7954,99.7774
2459.7595,99.7807
2460.7239,99.783
2461.6880,99.7839
2462.6523,99.7836
2463.6165,99.7829
2464.5808,99.7824
2465.5449,99.7827
2466.5093,99.7838
2467.4734,99.7858
2468.4377,99.7885
2469.4019,99.7917
2470.3662,99.7948
2471.3303,99.7972
2472.2947,99.7984
2473.2588,99.7986
2474.2231,99.7985
2475.1873,99.7989
2476.1516,99.8002
2477.1157,99.8024
2478.0801,99.8045
2479.0442,99.8059
2480.0085,99.8066
2480.9727,99.8074
2481.9370,99.81
2482.9011,99.8156
2483.8655,99.8243
2484.8296,99.8351
2485.7939,99.8456
2486.7581,99.8533
2487.7224,99.8562
2488.6865,99.8539
2489.6509,99.8472
2490.6150,99.8377
2491.5793,99.8276
2492.5435,99.8187
2493.5078,99.8125
2494.4719,99.8094
2495.4363,99.8095
2496.4004,99.8119
2497.3647,99.8158
2498.3289,99.8206
2499.2932,99.8262
2500.2573,99.8325
2501.2217,99.8391
2502.1858,99.8445
2503.1501,99.847
2504.1143,99.8453
2505.0786,99.8397
2506.0427,99.8326
2507.0071,99.8275
2507.9712,99.8268
2508.9355,99.8306
2509.8997,99.8365
2510.8640,99.8412
2511.8281,99.8426
2512.7925,99.8412
2513.7566,99.8393
2514.7209,99.8395
2515.6851,99.843
2516.6494,99.8491
2517.6135,99.8563
2518.5779,99.863
2519.5420,99.8685
2520.5063,99.8728
2521.4705,99.8756
2522.4348,99.876
2523.3989,99.8731
2524.3633,99.8668
2525.3274,99.8587
2526.2917,99.8516
2527.2559,99.8486
2528.2202,99.8515
2529.1843,99.8604
2530.1487,99.8728
2531.1128,99.8856
2532.0771,99.8955
2533.0413,99.9008
2534.0056,99.9016
2534.9697,99.8996
2535.9341,99.8968
2536.8982,99.8949
2537.8625,99.8946
2538.8267,99.8962
2539.7910,99.8994
2540.7551,99.9044
2541.7195,99.9112
2542.6836,99.9192
2543.6479,99.9275
2544.6121,99.9347
2545.5764,99.9395
2546.5405,99.9415
2547.5049,99.9414
2548.4690,99.9402
2549.4333,99.9391
2550.3975,99.9385
2551.3618,99.9385
2552.3259,99.9388
2553.2903,99.9392
2554.2544,99.9402
2555.2188,99.9422
2556.1829,99.9457
2557.1472,99.9506
2558.1113,99.9563
2559.0757,99.9618
2560.0398,99.9661
2561.0042,99.9689
2561.9683,99.9699
2562.9326,99.9697
2563.8967,99.9687
2564.8611,99.9675
2565.8252,99.9666
2566.7896,99.9663
2567.7537,99.9669
2568.7180,99.969
2569.6821,99.9729
2570.6465,99.9789
2571.6106,99.9863
2572.5750,99.9945
2573.5391,100.002
2574.5034,100.008
2575.4675,100.012
2576.4319,100.013
2577.3960,100.012
2578.3604,100.009
2579.3245,100.006
2580.2888,100.002
2581.2529,100
2582.2173,100.001
2583.1814,100.003
2584.1458,100.006
2585.1099,100.009
2586.0742,100.01
2587.0383,100.01
2588.0027,100.01
2588.9668,100.013
2589.9312,100.019
2590.8953,100.028
2591.8596,100.039
2592.8237,100.048
2593.7881,100.052
2594.7522,100.052
2595.7166,100.048
2596.6807,100.041
2597.6450,100.034
2598.6091,100.03
2599.5735,100.029
2600.5376,100.032
2601.5020,100.038
2602.4661,100.045
2603.4304,100.051
2604.3945,100.055
2605.3589,100.056
2606.3230,100.054
2607.2874,100.049
2608.2515,100.044
2609.2158,100.04
2610.1799,100.038
2611.1443,100.038
2612.1084,100.039
2613.0728,100.039
2614.0369,100.038
2615.0012,100.036
2615.9653,100.035
2616.9297,100.036
2617.8938,100.042
2618.8582,100.049
2619.8223,100.054
2620.7866,100.055
2621.7507,100.052
2622.7151,100.046
2623.6792,100.041
2624.6436,100.039
2625.6077,100.041
2626.5720,100.043
2627.5361,100.045
2628.5005,100.043
2629.4646,100.038
2630.4290,100.031
2631.3931,100.026
2632.3574,100.022
2633.3215,100.021
2634.2859,100.022
2635.2500,100.026
2636.2144,100.031
2637.1785,100.037
2638.1428,100.043
2639.1069,100.047
2640.0713,100.05
2641.0354,100.049
2641.9998,100.045
2642.9639,100.038
2643.9282,100.031
2644.8923,100.025
2645.8567,100.023
2646.8208,100.026
2647.7852,100.033
2648.7493,100.041
2649.7136,100.046
2650.6777,100.047
2651.6421,100.044
2652.6062,100.036
2653.5706,100.028
2654.5347,100.022
2655.4990,100.02
2656.4631,100.023
2657.4275,100.029
2658.3916,100.037
2659.3560,100.044
2660.3201,100.047
2661.2844,100.046
2662.2485,100.042
2663.2129,100.037
2664.1770,100.032
2665.1414,100.028
2666.1055,100.026
2667.0698,100.026
2668.0339,100.029
2668.9983,100.035
2669.9624,100.04
2670.9268,100.043
2671.8909,100.041
2672.8552,100.034
2673.8193,100.023
2674.7837,100.014
2675.7478,100.008
2676.7122,100.008
2677.6763,100.012
2678.6406,100.017
2679.6047,100.021
2680.5691,100.023
2681.5332,100.023
2682.4976,100.022
2683.4617,100.018
2684.4260,100.013
2685.3901,100.007
2686.3545,100.001
2687.3186,99.9958
2688.2830,99.9922
2689.2471,99.9904
2690.2114,99.9897
2691.1755,99.9897
2692.1399,99.9902
2693.1040,99.9914
2694.0684,99.9932
2695.0325,99.9955
2695.9968,99.9981
2696.9609,100.001
2697.9253,100.002
2698.8894,100.003
2699.8538,100.002
2700.8179,99.9975
2701.7822,99.9912
2702.7463,99.9842
2703.7107,99.9781
2704.6748,99.9739
2705.6392,99.9708
2706.6033,99.9672
2707.5676,99.9613
2708.5317,99.9533
2709.4961,99.9452
2710.4602,99.9396
2711.4246,99.9385
2712.3887,99.9418
2713.3530,99.9472
2714.3171,99.9523
2715.2815,99.9554
2716.2456,99.9565
2717.2100,99.9566
2718.1741,99.9566
2719.1384,99.9566
2720.1025,99.9565
2721.0669,99.9558
2722.0310,99.9547
2722.9954,99.9536
2723.9595,99.9525
2724.9238,99.9509
2725.8879,99.948
2726.8523,99.9433
2727.8164,99.9371
2728.7808,99.9302
2729.7449,99.9237
2730.7092,99.9186
2731.6733,99.9155
2732.6377,99.9142
2733.6018,99.9142
2734.5662,99.9143
2735.5303,99.9139
2736.4946,99.9127
2737.4587,99.9113
2738.4231,99.9106
2739.3872,99.9109
2740.3516,99.9115
2741.3157,99.9115
2742.2800,99.9101
2743.2441,99.908
2744.2085,99.9064
2745.1726,99.9066
2746.1370,99.9085
2747.1011,99.9108
2748.0654,99.9118
2749.0295,99.911
2749.9939,99.9093
2750.9580,99.909
2751.9224,99.9116
2752.8865,99.9169
2753.8508,99.9227
2754.8149,99.9262
2755.7793,99.9254
2756.7434,99.9204
2757.7078,99.9132
2758.6719,99.9067
2759.6362,99.9033
2760.6003,99.904
2761.5647,99.9079
2762.5288,99.913
2763.4932,99.9171
2764.4573,99.9186
2765.4216,99.9178
2766.3857,99.9158
2767.3501,99.9139
2768.3142,99.9124
2769.2786,99.91
2770.2427,99.9047
2771.2070,99.8947
2772.1711,99.8805
2773.1355,99.8645
2774.0996,99.8506
2775.0640,99.842
2776.0281,99.8403
2776.9924,99.8445
2777.9565,99.8524
2778.9209,99.8609
2779.8850,99.8679
2780.8494,99.8719
2781.8135,99.8723
2782.7778,99.8694
2783.7419,99.8637
2784.7063,99.8566
2785.6704,99.8491
2786.6348,99.8417
2787.5989,99.8341
2788.5632,99.8257
2789.5273,99.8162
2790.4917,99.8068
2791.4558,99.8001
2792.4202,99.7982
2793.3843,99.8017
2794.3486,99.8084
2795.3127,99.8137
2796.2771,99.8109
2797.2412,99.791
2798.2056,99.7637
2799.1697,99.7329
2800.1340,99.7032
2801.0981,99.6784
2802.0625,99.6592
2803.0266,99.6445
2803.9910,99.6314
2804.9551,99.6174
2805.9194,99.6006
2806.8835,99.5801
2807.8479,99.5561
2808.8120,99.5299
2809.7764,99.5034
2810.7405,99.4787
2811.7048,99.4575
2812.6689,99.4397
2813.6333,99.4234
2814.5974,99.4057
2815.5618,99.3842
2816.5259,99.3582
2817.4902,99.3294
2818.4543,99.3008
2819.4187,99.2744
2820.3828,99.2507
2821.3472,99.2281
2822.3113,99.2043
2823.2756,99.1774
2824.2397,99.1473
2825.2041,99.1148
2826.1682,99.0811
2827.1326,99.0467
2828.0967,99.012
2829.0610,98.9771
2830.0251,98.9427
2830.9895,98.9095
2831.9536,98.8782
2832.9180,98.8486
2833.8821,98.8208
2834.8464,98.7947
2835.8105,98.7716
2836.7749,98.7529
2837.7390,98.7397
2838.7034,98.7325
2839.6675,98.7306
2840.6318,98.7334
2841.5959,98.7412
2842.5603,98.7555
2843.5244,98.7782
2844.4888,98.811
2845.4529,98.854
2846.4172,98.9051
2847.3813,98.9604
2848.3457,99.0142
2849.3098,99.0604
2850.2742,99.0933
2851.2383,99.1088
2852.2026,99.105
2853.1667,99.082
2854.1311,99.0416
2855.0952,98.9868
2856.0596,98.9212
2857.0237,98.8494
2857.9880,98.7758
2858.9521,98.7041
2859.9165,98.6366
2860.8806,98.5738
2861.8450,98.5149
2862.8091,98.4589
2863.7734,98.4061
2864.7375,98.3582
2865.7019,98.3174
2866.6660,98.2855
2867.6304,98.2622
2868.5945,98.2451
2869.5588,98.23
2870.5229,98.2126
2871.4873,98.1903
2872.4514,98.1626
2873.4158,98.1319
2874.3799,98.1023
2875.3442,98.0783
2876.3083,98.0633
2877.2727,98.0585
2878.2368,98.0633
2879.2012,98.075
2880.1653,98.0902
2881.1296,98.1054
2882.0938,98.1181
2883.0581,98.1268
2884.0222,98.1314
2884.9866,98.1328
2885.9507,98.1327
2886.9150,98.133
2887.8792,98.1355
2888.8435,98.1414
2889.8076,98.151
2890.7720,98.1634
2891.7361,98.1764
2892.7004,98.1884
2893.6646,98.1997
2894.6289,98.2142
2895.5930,98.2381
2896.5574,98.2766
2897.5215,98.3298
2898.4858,98.3903
2899.4500,98.4452
2900.4143,98.4819
2901.3784,98.4944
2902.3428,98.4872
2903.3069,98.4722
2904.2712,98.4633
2905.2354,98.4693
2906.1997,98.4923
2907.1638,98.529
2908.1282,98.5741
2909.0923,98.624
2910.0566,98.6775
2911.0208,98.7347
2911.9851,98.7956
2912.9492,98.8599
2913.9136,98.9265
2914.8777,98.9944
2915.8420,99.0622
2916.8062,99.1275
2917.7705,99.187
2918.7346,99.2367
2919.6990,99.2741
2920.6631,99.2987
2921.6274,99.3125
2922.5916,99.3186
2923.5559,99.3193
2924.5200,99.3144
2925.4844,99.3014
2926.4485,99.2771
2927.4128,99.2389
2928.3770,99.1875
2929.3413,99.1263
2930.3054,99.0607
2931.2698,98.9957
2932.2339,98.935
2933.1982,98.8804
2934.1624,98.8323
2935.1267,98.7907
2936.0908,98.7561
2937.0552,98.7285
2938.0193,98.7079
2938.9836,98.6937
2939.9478,98.6849
2940.9121,98.6807
2941.8762,98.6811
2942.8406,98.6867
2943.8047,98.6987
2944.7690,98.7187
2945.7332,98.7473
2946.6975,98.7842
2947.6616,98.828
2948.6260,98.8765
2949.5901,98.9282
2950.5544,98.9825
2951.5186,99.0398
2952.4829,99.1007
2953.4470,99.1647
2954.4114,99.2294
2955.3755,99.2914
2956.3398,99.3473
2957.3040,99.3952
2958.2683,99.4351
2959.2324,99.4684
2960.1968,99.4972
2961.1609,99.5237
2962.1252,99.5498
2963.0894,99.5767
2964.0537,99.6048
2965.0178,99.6327
2965.9822,99.6576
2966.9463,99.6767
2967.9106,99.6885
2968.8748,99.694
2969.8391,99.696
2970.8032,99.6972
2971.7676,99.6994
2972.7317,99.7021
2973.6960,99.7044
2974.6602,99.706
2975.6245,99.7078
2976.5886,99.7116
2977.5530,99.7182
2978.5171,99.7276
2979.4814,99.7391
2980.4456,99.7505
2981.4099,99.7633
2982.3740,99.7806
2983.3384,99.8055
2984.3025,99.8383
2985.2668,99.8743
2986.2310,99.9047
2987.1953,99.9196
2988.1594,99.9121
2989.1238,99.8817
2990.0879,99.8349
2991.0522,99.7821
2992.0164,99.7334
2992.9807,99.6948
2993.9448,99.6665
2994.9092,99.644
2995.8733,99.621
2996.8376,99.5932
2997.8018,99.5594
2998.7661,99.5225
2999.7302,99.4863
3000.6946,99.4537
3001.6587,99.4245
3002.6230,99.396
3003.5872,99.3645
3004.5515,99.3271
3005.5156,99.2837
3006.4800,99.2365
3007.4441,99.1887
3008.4084,99.1435
3009.3726,99.1025
3010.3369,99.0657
3011.3010,99.0313
3012.2654,98.9962
3013.2295,98.9574
3014.1938,98.9126
3015.1580,98.8619
3016.1223,98.8083
3017.0864,98.7564
3018.0508,98.7109
3019.0149,98.674
3019.9792,98.6444
3020.9434,98.6181
3021.9077,98.5901
3022.8718,98.5576
3023.8362,98.5207
3024.8003,98.4828
3025.7646,98.4488
3026.7288,98.4222
3027.6931,98.404
3028.6572,98.3916
3029.6216,98.3797
3030.5857,98.3625
3031.5500,98.3363
3032.5142,98.3012
3033.4785,98.2609
3034.4426,98.2209
3035.4070,98.1858
3036.3711,98.1574
3037.3354,98.1346
3038.2996,98.1144
3039.2639,98.0938
3040.2280,98.0711
3041.1924,98.0462
3042.1565,98.0205
3043.1208,97.9958
3044.0850,97.9736
3045.0493,97.9548
3046.0134,97.9389
3046.9778,97.9244
3047.9419,97.9089
3048.9063,97.8905
3049.8704,97.8686
3050.8347,97.8445
3051.7988,97.8204
3052.7632,97.7988
3053.7273,97.7809
3054.6917,97.7665
3055.6558,97.7542
3056.6201,97.7418
3057.5842,97.7274
3058.5486,97.71
3059.5127,97.6901
3060.4771,97.6689
3061.4412,97.6487
3062.4055,97.6308
3063.3696,97.6158
3064.3340,97.6024
3065.2981,97.5887
3066.2625,97.5726
3067.2266,97.5534
3068.1909,97.5315
3069.1550,97.5079
3070.1194,97.4835
3071.0835,97.459
3072.0479,97.4351
3073.0120,97.4131
3073.9763,97.3949
3074.9404,97.3814
3075.9048,97.3722
3076.8689,97.365
3077.8333,97.3565
3078.7974,97.3445
3079.7617,97.3284
3080.7258,97.3101
3081.6902,97.2921
3082.6543,97.2762
3083.6187,97.2627
3084.5828,97.2504
3085.5471,97.2373
3086.5112,97.2211
3087.4756,97.2003
3088.4397,97.175
3089.4041,97.1471
3090.3682,97.1207
3091.3325,97.1
3092.2966,97.0877
3093.2610,97.0829
3094.2251,97.0809
3095.1895,97.076
3096.1536,97.0641
3097.1179,97.0457
3098.0820,97.0242
3099.0464,97.0037
3100.0105,96.9854
3100.9749,96.9673
3101.9390,96.9466
3102.9033,96.9218
3103.8674,96.8945
3104.8318,96.8681
3105.7959,96.8448
3106.7603,96.8245
3107.7244,96.8052
3108.6887,96.785
3109.6528,96.7638
3110.6172,96.7434
3111.5813,96.7255
3112.5457,96.7101
3113.5098,96.6956
3114.4741,96.6799
3115.4382,96.6619
3116.4026,96.6421
3117.3667,96.6215
3118.3311,96.6005
3119.2952,96.5779
3120.2595,96.5524
3121.2236,96.5239
3122.1880,96.4941
3123.1521,96.4654
3124.1165,96.439
3125.0806,96.4144
3126.0449,96.3899
3127.0090,96.3644
3127.9734,96.3393
3128.9375,96.3175
3129.9019,96.3014
3130.8660,96.2905
3131.8303,96.2808
3132.7944,96.2665
3133.7588,96.2429
3134.7229,96.2092
3135.6873,96.1688
3136.6514,96.1276
3137.6157,96.0912
3138.5798,96.0624
3139.5442,96.0413
3140.5083,96.0252
3141.4727,96.0107
3142.4368,95.9942
3143.4011,95.974
3144.3652,95.95
3145.3296,95.9237
3146.2937,95.8971
3147.2581,95.8718
3148.2222,95.8481
3149.1865,95.8247
3150.1506,95.7999
3151.1150,95.7725
3152.0791,95.7422
3153.0435,95.7098
3154.0076,95.6767
3154.9719,95.6443
3155.9360,95.6128
3156.9004,95.582
3157.8645,95.5511
3158.8289,95.5201
3159.7930,95.4901
3160.7573,95.4636
3161.7214,95.443
3162.6858,95.4297
3163.6499,95.422
3164.6143,95.4158
3165.5784,95.4059
3166.5427,95.3885
3167.5068,95.3626
3168.4712,95.33
3169.4353,95.2189
3170.3997,95.1858
3171.3638,95.1577
3172.3281,95.1353
3173.2922,95.1171
3174.2566,95.1
3175.2207,95.0804
3176.1851,95.0549
3177.1492,95.0216
3178.1135,94.9821
3179.0776,94.9406
3180.0420,94.9024
3181.0061,94.8713
3181.9705,94.8475
3182.9346,94.8279
3183.8989,94.8087
3184.8630,94.7872
3185.8274,94.7641
3186.7915,94.7412
3187.7559,94.7198
3188.7200,94.6976
3189.6843,94.67
3190.6484,94.6324
3191.6128,94.584
3192.5769,94.5293
3193.5413,94.4762
3194.5054,94.4332
3195.4697,94.4041
3196.4338,94.3877
3197.3982,94.3785
3198.3623,94.3706
3199.3267,94.3603
3200.2908,94.3465
3201.2551,94.3291
3202.2192,94.3071
3203.1836,94.2786
3204.1477,94.2427
3205.1121,94.2013
3206.0762,94.1592
3207.0405,94.1217
3208.0046,94.0918
3208.9690,94.0683
3209.9331,94.0467
3210.8975,94.0222
3211.8616,93.9932
3212.8259,93.9613
3213.7900,93.9312
3214.7544,93.907
3215.7185,93.8905
3216.6829,93.88
3217.6470,93.8711
3218.6113,93.8582
3219.5754,93.8367
3220.5398,93.8045
3221.5039,93.7628
3222.4683,93.7154
3223.4324,93.6672
3224.3967,93.6229
3225.3608,93.5859
3226.3252,93.5583
3227.2893,93.5409
3228.2537,93.5328
3229.2178,93.5309
3230.1821,93.5299
3231.1462,93.5231
3232.1106,93.505
3233.0747,93.4732
3234.0391,93.4299
3235.0032,93.3805
3235.9675,93.3319
3236.9316,93.2896
3237.8960,93.2573
3238.8601,93.2356
3239.8245,93.2229
3240.7886,93.2153
3241.7529,93.2076
3242.7170,93.1949
3243.6814,93.1747
3244.6455,93.1475
3245.6099,93.1165
3246.5740,93.0857
3247.5383,93.0563
3248.5024,93.0271
3249.4668,92.9963
3250.4309,92.9638
3251.3953,92.9327
3252.3594,92.9069
3253.3237,92.8884
3254.2878,92.8738
3255.2522,92.8563
3256.2163,92.8286
3257.1807,92.788
3258.1448,92.738
3259.1091,92.6865
3260.0732,92.6417
3261.0376,92.608
3262.0017,92.5846
3262.9661,92.567
3263.9302,92.55
3264.8945,92.5304
3265.8586,92.5079
3266.8230,92.484
3267.7871,92.4611
3268.7515,92.4411
3269.7156,92.4247
3270.6799,92.412
3271.6440,92.4019
3272.6084,92.3926
3273.5725,92.3818
3274.5369,92.3676
3275.5010,92.3498
3276.4653,92.3302
3277.4294,92.3121
3278.3938,92.2986
3279.3579,92.2905
3280.3223,92.2859
3281.2864,92.2808
3282.2507,92.2714
3283.2148,92.2558
3284.1792,92.2353
3285.1433,92.2128
3286.1077,92.1915
3287.0718,92.1728
3288.0361,92.1566
3289.0002,92.1417
3289.9646,92.1273
3290.9287,92.1137
3291.8931,92.1009
3292.8572,92.0888
3293.8215,92.0765
3294.7856,92.0629
3295.7500,92.0479
3296.7141,92.0334
3297.6785,92.0219
3298.6426,92.0158
3299.6069,92.0151
3300.5710,92.0178
3301.5354,92.0204
3302.4995,92.0201
3303.4639,92.0156
3304.4280,92.0072
3305.3923,91.9957
3306.3564,91.9815
3307.3208,91.9653
3308.2849,91.9485
3309.2493,91.934
3310.2134,91.9255
3311.1777,91.9249
3312.1418,91.9306
3313.1062,91.9373
3314.0703,91.9387
3315.0347,91.9299
3315.9988,91.911
3316.9631,91.886
3317.9272,91.861
3318.8916,91.8411
3319.8557,91.8284
3320.8201,91.8219
3321.7842,91.8186
3322.7485,91.8159
3323.7126,91.8124
3324.6770,91.8086
3325.6411,91.8054
3326.6055,91.8033
3327.5696,91.8014
3328.5339,91.7977
3329.4980,91.7897
3330.4624,91.7765
3331.4265,91.7594
3332.3909,91.7422
3333.3550,91.7292
3334.3193,91.7238
3335.2834,91.7267
3336.2478,91.7359
3337.2119,91.7484
3338.1763,91.7618
3339.1404,91.775
3340.1047,91.7874
3341.0688,91.7989
3342.0332,91.8086
3342.9973,91.8158
3343.9617,91.8203
3344.9258,91.8237
3345.8901,91.8283
3346.8542,91.836
3347.8186,91.8476
3348.7827,91.8619
3349.7471,91.8762
3350.7112,91.8877
3351.6755,91.894
3352.6396,91.8948
3353.6040,91.8917
3354.5681,91.8888
3355.5325,91.8912
3356.4966,91.9029
3357.4609,91.9246
3358.4250,91.9525
3359.3894,91.9796
3360.3535,91.9992
3361.3179,92.0083
3362.2820,92.0099
3363.2463,92.011
3364.2104,92.0191
3365.1748,92.0382
3366.1389,92.0663
3367.1033,92.0974
3368.0674,92.1247
3369.0317,92.1448
3369.9958,92.159
3370.9602,92.1719
3371.9243,92.1887
3372.8887,92.2119
3373.8528,92.2399
3374.8171,92.2677
3375.7813,92.289
3376.7456,92.3
3377.7097,92.3007
3378.6741,92.2952
3379.6382,92.29
3380.6025,92.291
3381.5667,92.3016
3382.5310,92.3216
3383.4951,92.3468
3384.4595,92.3707
3385.4236,92.3868
3386.3879,92.3919
3387.3521,92.3885
3388.3164,92.3842
3389.2805,92.3889
3390.2449,92.4085
3391.2090,92.4407
3392.1733,92.4754
3393.1375,92.5003
3394.1018,92.5091
3395.0659,92.5062
3396.0303,92.5036
3396.9944,92.5136
3397.9587,92.5407
3398.9229,92.5791
3399.8872,92.6166
3400.8513,92.6433
3401.8157,92.6571
3402.7798,92.6638
3403.7441,92.6723
3404.7083,92.6875
3405.6726,92.7082
3406.6367,92.7282
3407.6011,92.7419
3408.5652,92.7486
3409.5295,92.7532
3410.4937,92.7627
3411.4580,92.7813
3412.4221,92.8078
3413.3865,92.8364
3414.3506,92.861
3415.3149,92.8794
3416.2791,92.8951
3417.2434,92.9145
3418.2075,92.9422
3419.1719,92.9779
3420.1360,93.016
3421.1003,93.0495
3422.0645,93.0749
3423.0288,93.0937
3423.9929,93.1105
3424.9573,93.1291
3425.9214,93.1501
3426.8857,93.1703
3427.8499,93.185
3428.8142,93.191
3429.7783,93.1898
3430.7427,93.1878
3431.7068,93.1943
3432.6711,93.2161
3433.6353,93.2539
3434.5996,93.3013
3435.5637,93.3478
3436.5281,93.3845
3437.4922,93.4076
3438.4565,93.4197
3439.4207,93.4258
3440.3850,93.4307
3441.3491,93.4376
3442.3135,93.4494
3443.2776,93.4713
3444.2419,93.5094
3445.2061,93.5663
3446.1704,93.6364
3447.1345,93.7059
3448.0989,93.7602
3449.0630,93.7925
3450.0273,93.8069
3450.9915,93.8149
3451.9558,93.828
3452.9199,93.8513
3453.8843,93.8818
3454.8484,93.9107
3455.8127,93.9312
3456.7769,93.9436
3457.7412,93.9557
3458.7053,93.9773
3459.6697,94.0134
3460.6338,94.061
3461.5981,94.111
3462.5623,94.1543
3463.5266,94.1884
3464.4907,94.2183
3465.4551,94.252
3466.4192,94.2948
3467.3835,94.3445
3468.3477,94.3929
3469.3120,94.4311
3470.2761,94.4558
3471.2405,94.4706
3472.2046,94.4828
3473.1689,94.4979
3474.1331,94.5161
3475.0974,94.5343
3476.0615,94.5504
3477.0259,94.5684
3477.9900,94.5969
3478.9543,94.6434
3479.9185,94.7072
3480.8828,94.7761
3481.8469,94.8332
3482.8113,94.8675
3483.7754,94.8815
3484.7397,94.8884
3485.7039,94.9031
3486.6682,94.9336
3487.6323,94.9768
3488.5967,95.0222
3489.5608,95.0601
3490.5251,95.0882
3491.4893,95.1131
3492.4536,95.1451
3493.4177,95.191
3494.3821,95.2489
3495.3462,95.3078
3496.3105,95.3541
3497.2747,95.3806
3498.2390,95.3916
3499.2031,95.4011
3500.1675,95.4254
3501.1316,95.4726
3502.0959,95.5346
3503.0601,95.5906
3504.0244,95.6231
3504.9885,95.6291
3505.9529,95.6203
3506.9170,95.6163
3507.8813,95.6355
3508.8455,95.6864
3509.8098,95.7617
3510.7739,95.8434
3511.7383,95.9127
3512.7024,95.9593
3513.6667,95.9819
3514.6309,95.9858
3515.5952,95.9796
3516.5593,95.972
3517.5237,95.9711
3518.4878,95.9836
3519.4521,96.0133
3520.4163,96.0604
3521.3806,96.1197
3522.3447,96.1821
3523.3091,96.2399
3524.2732,96.2922
3525.2375,96.3444
3526.2017,96.4022
3527.1660,96.4634
3528.1301,96.5168
3529.0945,96.5493
3530.0586,96.5561
3531.0229,96.5431
3531.9871,96.5243
3532.9514,96.5154
3533.9155,96.5281
3534.8799,96.5652
3535.8440,96.6188
3536.8083,96.6746
3537.7725,96.7192
3538.7368,96.7457
3539.7009,96.7549
3540.6653,96.7562
3541.6294,96.7673
3542.5938,96.8089
3543.5579,96.8904
3544.5222,96.9959
3545.4863,97.0881
3546.4507,97.1344
3547.4148,97.1292
3548.3792,97.092
3549.3433,97.0543
3550.3076,97.0476
3551.2717,97.0913
3552.2361,97.18
3553.2002,97.2846
3554.1646,97.3706
3555.1287,97.4186
3556.0930,97.4311
3557.0571,97.4276
3558.0215,97.4297
3558.9856,97.4456
3559.9500,97.4623
3560.9141,97.4555
3561.8784,97.4121
3562.8425,97.3497
3563.8069,97.3213
3564.7710,97.3879
3565.7354,97.5556
3566.6995,97.741
3567.6638,97.8498
3568.6279,97.8719
3569.5923,97.8482
3570.5564,97.8064
3571.5208,97.7591
3572.4849,97.7217
3573.4492,97.7136
3574.4133,97.7456
3575.3777,97.8133
3576.3418,97.9018
3577.3062,97.9949
3578.2703,98.078
3579.2346,98.1349
3580.1987,98.1468
3581.1631,98.0985
3582.1272,97.9912
3583.0916,97.8547
3584.0557,97.7516
3585.0200,97.7569
3585.9841,97.8983
3586.9485,98.1045
3587.9126,98.2588
3588.8770,98.3119
3589.8411,98.2893
3590.8054,98.2322
3591.7695,98.1776
3592.7339,98.1599
3593.6980,98.197
3594.6624,98.2758
3595.6265,98.3656
3596.5908,98.4473
3597.5549,98.5238
3598.5193,98.6046
3599.4834,98.6852
3600.4478,98.7418
3601.4119,98.7467
3602.3762,98.6895
3603.3403,98.5847
3604.3047,98.4688
3605.2688,98.3903
3606.2332,98.3866
3607.1973,98.4568
3608.1616,98.5604
3609.1257,98.6545
3610.0901,98.7254
3611.0542,98.7806
3612.0186,98.8233
3612.9829,98.8421
3613.9470,98.8233
3614.9114,98.7716
3615.8755,98.7213
3616.8398,98.7252
3617.8040,98.819
3618.7683,98.9806
3619.7324,99.1382
3620.6968,99.2302
3621.6609,99.2308
3622.6252,99.1281
3623.5894,98.9204
3624.5537,98.6473
3625.5178,98.4181
3626.4822,98.3887
3627.4463,98.639
3628.4106,99.0264
3629.3748,99.3032
3630.3391,99.3983
3631.3032,99.39
3632.2676,99.3434
3633.2317,99.2875
3634.1960,99.2439
3635.1602,99.2317
3636.1245,99.2581
3637.0886,99.3172
3638.0530,99.3965
3639.0171,99.4826
3639.9814,99.5588
3640.9456,99.5996
3641.9099,99.5726
3642.8740,99.4536
3643.8384,99.2514
3644.8025,99.0399
3645.7668,98.9814
3646.7310,99.2872
3647.6953,99.9909
3648.6594,100.664
3649.6238,100.811
3650.5879,100.534
3651.5522,100.161
3652.5164,99.8292
3653.4807,99.5626
3654.4448,99.3933
3655.4092,99.364
3656.3733,99.4764
3657.3376,99.6723
3658.3018,99.8749
3659.2661,100.035
3660.2302,100.139
3661.1946,100.193
3662.1587,100.202
3663.1230,100.155
3664.0872,100.035
3665.0515,99.8492
3666.0156,99.6555
3666.9800,99.5627
3667.9441,99.6568
3668.9084,99.8859
3669.8726,100.065
3670.8369,100.054
3671.8010,99.882
3672.7654,99.6976
3673.7295,99.6661
3674.6938,99.8601
3675.6580,100.17
3676.6223,100.411
3677.5864,100.521
3678.5508,100.535
3679.5149,100.491
3680.4792,100.408
3681.4434,100.294
3682.4077,100.146
3683.3718,99.9519
3684.3362,99.7162
3685.3003,99.4897
3686.2646,99.3862
3687.2288,99.5376
3688.1931,99.9587
3689.1572,100.443
3690.1216,100.733
3691.0857,100.777
3692.0500,100.674
3693.0142,100.508
3693.9785,100.316
3694.9426,100.114
3695.9070,99.9128
3696.8711,99.73
3697.8354,99.5944
3698.7996,99.5462
3699.7639,99.6197
3700.7280,99.8073
3701.6924,100.04
3702.6565,100.221
3703.6208,100.279
3704.5850,100.196
3705.5493,99.9953
3706.5134,99.7378
3707.4778,99.5261
3708.4419,99.4878
3709.4063,99.6989
3710.3704,100.071
3711.3347,100.385
3712.2988,100.517
3713.2632,100.51
3714.2273,100.433
3715.1917,100.317
3716.1558,100.175
3717.1201,100.037
3718.0842,99.9463
3719.0486,99.9405
3720.0127,100.03
3720.9771,100.199
3721.9412,100.419
3722.9055,100.661
3723.8696,100.886
3724.8340,101.045
3725.7981,101.093
3726.7625,101.012
3727.7266,100.812
3728.6909,100.526
3729.6550,100.214
3730.6194,99.9723
3731.5835,99.9369
3732.5479,100.24
3733.5120,100.89
3734.4763,101.645
3735.4404,102.138
3736.4048,102.227
3737.3689,102.023
3738.3333,101.651
3739.2974,101.157
3740.2617,100.58
3741.2258,100.022
3742.1902,99.649
3743.1543,99.5986
3744.1187,99.8234
3745.0828,100.108
3746.0471,100.285
3747.0112,100.342
3747.9756,100.381
3748.9397,100.514
3749.9041,100.736
3750.8682,100.865
3751.8325,100.777
3752.7966,100.552
3753.7610,100.298
3754.7251,100.058
3755.6895,99.8619
3756.6536,99.7592
3757.6179,99.7812
3758.5820,99.8916
3759.5464,100.003
3760.5105,100.048
3761.4749,100.007
3762.4390,99.9054
3763.4033,99.782
3764.3674,99.6799
3765.3318,99.631
3766.2959,99.6474
3767.2603,99.7216
3768.2244,99.8308
3769.1887,99.9405
3770.1528,100.014
3771.1172,100.028
3772.0813,99.9751
3773.0457,99.8629
3774.0098,99.7103
3774.9741,99.5547
3775.9382,99.4524
3776.9026,99.456
3777.8667,99.5719
3778.8311,99.7432
3779.7952,99.8906
3780.7595,99.9709
3781.7236,99.9881
3782.6880,99.9679
3783.6521,99.9344
3784.6165,99.9
3785.5806,99.8672
3786.5449,99.8356
3787.5090,99.806
3788.4734,99.7774
3789.4375,99.7452
3790.4019,99.7061
3791.3660,99.6663
3792.3303,99.6466
3793.2944,99.6726
3794.2588,99.7527
3795.2229,99.861
3796.1873,99.9492
3797.1514,99.9829
3798.1157,99.9709
3799.0798,99.9526
3800.0442,99.9473
3801.0083,99.92
3801.9727,99.8232
3802.9368,99.6606
3803.9011,99.4855
3804.8652,99.3671
3805.8296,99.3643
3806.7937,99.4898
3807.7581,99.6865
3808.7222,99.86
3809.6865,99.9339
3810.6506,99.8789
3811.6150,99.7237
3812.5791,99.5534
3813.5435,99.4722
3814.5076,99.5274
3815.4719,99.6593
3816.4360,99.7588
3817.4004,99.7774
3818.3645,99.7547
3819.3289,99.7551
3820.2930,99.7969
3821.2573,99.8444
3822.2214,99.8671
3823.1858,99.8685
3824.1499,99.8611
3825.1143,99.8541
3826.0784,99.858
3827.0427,99.882
3828.0068,99.9259
3828.9712,99.9766
3829.9353,100.013
3830.8997,100.014
3831.8638,99.9604
3832.8281,99.8483
3833.7922,99.6939
3834.7566,99.5409
3835.7207,99.4496
3836.6851,99.4646
3837.6492,99.5788
3838.6135,99.7371
3839.5776,99.8867
3840.5420,100.011
3841.5061,100.117
3842.4705,100.21
3843.4346,100.285
3844.3989,100.321
3845.3630,100.29
3846.3274,100.156
3847.2915,99.8869
3848.2559,99.4836
3849.2200,99.0136
3850.1843,98.6503
3851.1484,98.6538
3852.1128,99.1651
3853.0769,99.8832
3854.0413,100.322
3855.0054,100.425
3855.9697,100.371
3856.9338,100.235
3857.8982,100.019
3858.8623,99.7527
3859.8267,99.5099
3860.7908,99.3895
3861.7551,99.4521
3862.7192,99.6572
3863.6836,99.8738
3864.6477,99.979
3865.6121,99.9404
3866.5762,99.8085
3867.5405,99.6695
3868.5046,99.6029
3869.4690,99.6447
3870.4331,99.7673
3871.3975,99.9018
3872.3616,99.9872
3873.3259,99.9962
3874.2900,99.9291
3875.2544,99.8014
3876.2185,99.6449
3877.1829,99.5084
3878.1470,99.4468
3879.1113,99.4911
3880.0754,99.62
3881.0398,99.7687
3882.0039,99.8748
3882.9683,99.9129
3883.9324,99.8899
3884.8967,99.8207
3885.8608,99.7176
3886.8252,99.5947
3887.7893,99.4784
3888.7537,99.4139
3889.7178,99.4573
3890.6821,99.6313
3891.6462,99.878
3892.6106,100.081
3893.5747,100.153
3894.5391,100.075
3895.5032,99.8826
3896.4675,99.6437
3897.4316,99.4406
3898.3960,99.3373
3899.3601,99.3505
3900.3245,99.4537
3901.2886,99.6084
3902.2529,99.7819
3903.2170,99.9392
3904.1814,100.046
3905.1455,100.09
3906.1099,100.076
3907.0740,100.02
3908.0383,99.9402
3909.0024,99.8523
3909.9668,99.7712
3910.9309,99.7042
3911.8953,99.6517
3912.8594,99.6158
3913.8237,99.6086
3914.7878,99.65
3915.7522,99.7495
3916.7163,99.8849
3917.6807,100.006
3918.6448,100.067
3919.6091,100.055
3920.5732,99.987
3921.5376,99.8994
3922.5017,99.8279
3923.4661,99.7938
3924.4302,99.793
3925.3945,99.8028
3926.3586,99.801
3927.3230,99.7816
3928.2871,99.7601
3929.2515,99.7653
3930.2156,99.8194
3931.1799,99.9169
3932.1440,100.024
3933.1084,100.102
3934.0725,100.13
3935.0369,100.102
3936.0010,100.026
3936.9653,99.9173
3937.9294,99.7966
3938.8938,99.6921
3939.8579,99.6319
3940.8223,99.6324
3941.7864,99.6872
3942.7507,99.7674
3943.7148,99.8384
3944.6792,99.8793
3945.6433,99.8912
3946.6077,99.8918
3947.5718,99.9009
3948.5361,99.9252
3949.5002,99.9539
3950.4646,99.9678
3951.4287,99.9549
3952.3931,99.9166
3953.3572,99.8655
3954.3215,99.818
3955.2856,99.7875
3956.2500,99.7805
3957.2141,99.798
3958.1785,99.8385
3959.1426,99.8986
3960.1069,99.9705
3961.0710,100.039
3962.0354,100.086
3962.9995,100.096
3963.9639,100.067
3964.9280,100.008
3965.8923,99.9387
3966.8564,99.8762
3967.8208,99.8323
3968.7849,99.8105
3969.7493,99.8093
3970.7134,99.8261
3971.6777,99.8586
3972.6418,99.9037
3973.6062,99.9542
3974.5703,99.9987
3975.5347,100.026
3976.4988,100.032
3977.4631,100.019
3978.4272,99.9969
3979.3916,99.9771
3980.3557,99.9655
3981.3201,99.9616
3982.2842,99.9599
3983.2485,99.9549
3984.2126,99.945
3985.1770,99.9332
3986.1411,99.9252
3987.1055,99.9252
3988.0696,99.9337
3989.0339,99.9473
3989.9980,99.9607
3990.9624,99.9702
3991.9265,99.9754
3992.8909,99.9785
3993.8550,99.9813
3994.8193,99.9835
3995.7834,99.9823
3996.7478,99.9751
3997.7119,99.9621
3998.6763,99.9474
3999.6404,99.9364
4000.6047,100.101

##### Extended Information
[Comments]
Sample name
Comment
User
Division
Company,HANKYONG

[Detailed Information]
Creation date,4/24/2024 3:41 PM

Data array type,Linear data array
Horizontal axis,Wavenumber [cm-1]
Vertical axis,%T
Start,649.893 cm-1
End,4000.6 cm-1
Data interval,0.964233 cm-1
Data points,3476    

[Measurement Information]
Model Name,FT/IR-4700typeA
Serial Number,D056761788

Accessory,ATR PRO ONE
Accessory S/N,C174761809
Incident angle,45 deg

Measurement Date,4/24/2024 3:40 PM

Light Source,Standard
Detector,TGS
Accumulation,32
Resolution,4 cm-1
Zero Filling,On
Apodization,Cosine
Gain,Auto (4)
Aperture,Auto (7.1 mm)
Scanning Speed,Auto (2 mm/sec)
Filter,Auto (30000 Hz)

