TITLE,
DATA TYPE,INFRARED SPECTRUM
ORIGIN,JASCO
OWNER,
DATE,24/04/24
TIME,14:14:04
SPECTROMETER/DATA SYSTEM,
LOCALE,1033
RESOLUTION,
DELTAX,0.964233
XUNITS,1/CM
YUNITS,TRANSMITTANCE
FIRSTX,  649.8934
LASTX, 4000.6047
NPOINTS,    3476
FIRSTY,    99.07203
MAXY,   101.28857
MINY,    70.34431
XYDATA
649.8934,99.072
650.8576,98.9344
651.8218,98.8346
652.7861,98.7731
653.7503,98.739
654.7145,98.7223
655.6788,98.7085
656.6430,98.6786
657.6072,98.6184
658.5715,98.5331
659.5357,98.4522
660.4999,98.4124
661.4642,98.4259
662.4284,98.4579
663.3926,98.4364
664.3569,98.2736
665.3211,97.8814
666.2853,97.203
667.2496,96.3232
668.2138,95.6091
669.1780,95.4827
670.1423,95.9026
671.1065,96.5016
672.0707,97.0274
673.0350,97.4065
673.9992,97.6473
674.9634,97.7804
675.9277,97.8391
676.8919,97.8551
677.8561,97.8556
678.8204,97.864
679.7846,97.8991
680.7488,97.9712
681.7131,98.0772
682.6773,98.2007
683.6415,98.322
684.6058,98.4298
685.5700,98.5253
686.5342,98.6138
687.4985,98.6926
688.4627,98.7453
689.4269,98.7479
690.3912,98.6846
691.3554,98.5687
692.3196,98.4573
693.2839,98.4344
694.2481,98.5484
695.2123,98.7684
696.1766,99.0215
697.1408,99.2495
698.1050,99.4255
699.0693,99.5467
700.0335,99.6235
700.9977,99.6705
701.9620,99.6996
702.9262,99.718
703.8904,99.7302
704.8547,99.7394
705.8189,99.7459
706.7831,99.7458
707.7474,99.7325
708.7116,99.7026
709.6758,99.6601
710.6401,99.6183
711.6043,99.5921
712.5685,99.589
713.5328,99.5998
714.4970,99.5993
715.4612,99.6985
716.4255,99.5842
717.3897,99.4183
718.3539,99.2387
719.3182,99.1001
720.2824,99.0475
721.2466,99.0911
722.2109,99.2005
723.1751,99.3245
724.1393,99.4178
725.1036,99.4595
726.0678,99.4939
727.0320,99.545
727.9963,99.5909
728.9605,99.6442
729.9247,99.7052
730.8890,99.7662
731.8532,99.8186
732.8174,99.8584
733.7817,99.8868
734.7459,99.9081
735.7101,99.9255
736.6744,99.9388
737.6386,99.9451
738.6028,99.9415
739.5671,99.9295
740.5313,99.9157
741.4955,99.9098
742.4598,99.9194
743.4240,99.9468
744.3882,99.9871
745.3525,100.032
746.3167,100.073
747.2809,100.108
748.2452,100.135
749.2094,100.156
750.1736,100.176
751.1379,100.192
752.1021,100.206
753.0663,100.218
754.0306,100.228
754.9948,100.241
755.9590,100.259
756.9233,100.281
757.8875,100.302
758.8517,100.312
759.8160,100.303
760.7802,100.274
761.7444,100.233
762.7087,100.193
763.6729,100.17
764.6371,100.174
765.6014,100.202
766.5656,100.245
767.5298,100.288
768.4941,100.32
769.4583,100.339
770.4225,100.345
771.3868,100.342
772.3510,100.334
773.3152,100.321
774.2795,100.301
775.2437,100.277
776.2079,100.254
777.1722,100.237
778.1364,100.235
779.1006,100.252
780.0649,100.282
781.0291,100.316
781.9933,100.344
782.9576,100.357
783.9218,100.356
784.8860,100.346
785.8503,100.333
786.8145,100.318
787.7787,100.297
788.7430,100.265
789.7072,100.219
790.6714,100.162
791.6357,100.101
792.5999,100.045
793.5641,99.9945
794.5284,99.9474
795.4926,99.8958
796.4568,99.8331
797.4211,99.7575
798.3853,99.6726
799.3495,99.5856
800.3138,99.5042
801.2780,99.4324
802.2422,99.3702
803.2065,99.3143
804.1707,99.2616
805.1349,99.2123
806.0992,99.1708
807.0634,99.1444
808.0276,99.1389
808.9919,99.155
809.9561,99.1877
810.9203,99.2285
811.8846,99.2706
812.8488,99.3126
813.8130,99.3585
814.7773,99.4141
815.7415,99.4825
816.7057,99.5606
817.6700,99.6409
818.6342,99.7148
819.5984,99.7768
820.5627,99.8266
821.5269,99.8674
822.4911,99.9031
823.4554,99.9353
824.4196,99.9628
825.3839,99.9836
826.3481,99.9965
827.3123,100.003
828.2766,100.006
829.2408,100.008
830.2050,100.014
831.1693,100.023
832.1335,100.034
833.0977,100.043
834.0620,100.045
835.0262,100.035
835.9904,100.011
836.9547,99.974
837.9189,99.9309
838.8831,99.8987
839.8474,99.8718
840.8116,99.8464
841.7758,99.8156
842.7401,99.7719
843.7043,99.7115
844.6685,99.6359
845.6328,99.5503
846.5970,99.4592
847.5612,99.3632
848.5255,99.2583
849.4897,99.1394
850.4539,99.0033
851.4182,98.8512
852.3824,98.6874
853.3466,98.5171
854.3109,98.3438
855.2751,98.1699
856.2393,97.9978
857.2036,97.831
858.1678,97.6736
859.1320,97.5282
860.0963,97.3941
861.0605,97.267
862.0247,97.141
862.9890,97.0128
863.9532,96.8832
864.9174,96.7565
865.8817,96.6376
866.8459,96.5292
867.8101,96.4306
868.7744,96.3405
869.7386,96.26
870.7028,96.1927
871.6671,96.1408
872.6313,96.0998
873.5955,96.0551
874.5598,95.9871
875.5240,95.8809
876.4882,95.7375
877.4525,95.5765
878.4167,95.4286
879.3809,95.3207
880.3452,95.2635
881.3094,95.2486
882.2736,95.2552
883.2379,95.2613
884.2021,95.2512
885.1663,95.2156
886.1306,95.1483
887.0948,95.0456
888.0590,94.9089
889.0233,94.7495
889.9875,94.5894
890.9517,94.4535
891.9160,94.3595
892.8802,94.3107
893.8444,94.2972
894.8087,94.3048
895.7729,94.3248
896.7371,94.3579
897.7014,94.4109
898.6656,94.49
899.6298,94.5954
900.5941,94.722
901.5583,94.863
902.5225,95.0138
903.4868,95.1735
904.4510,95.3427
905.4152,95.5201
906.3795,95.7004
907.3437,95.8744
908.3079,96.0318
909.2722,96.165
910.2364,96.273
911.2006,96.3612
912.1649,96.4383
913.1291,96.511
914.0933,96.5794
915.0576,96.6363
916.0218,96.6717
916.9860,96.6795
917.9503,96.6617
918.9145,96.6273
919.8787,96.5873
920.8430,96.5483
921.8072,96.5109
922.7714,96.4707
923.7357,96.4234
924.6999,96.3664
925.6641,96.2999
926.6284,96.2252
927.5926,96.1426
928.5568,96.0522
929.5211,95.9538
930.4853,95.8476
931.4495,95.7334
932.4138,95.6108
933.3780,95.4796
934.3422,95.3415
935.3065,95.2007
936.2707,95.0628
937.2349,94.9319
938.1992,94.8083
939.1634,94.6882
940.1276,94.5663
941.0919,94.4388
942.0561,94.306
943.0203,94.171
943.9846,94.0368
944.9488,93.9036
945.9130,93.7678
946.8773,93.6239
947.8415,93.4678
948.8057,93.2988
949.7700,93.1199
950.7342,92.9358
951.6984,92.7502
952.6627,92.5644
953.6269,92.3772
954.5911,92.1868
955.5554,91.9932
956.5196,91.7982
957.4838,91.6049
958.4481,91.4149
959.4123,91.2278
960.3765,91.0412
961.3408,90.8524
962.3050,90.6607
963.2692,90.4675
964.2335,90.2749
965.1977,90.084
966.1619,89.8928
967.1262,89.6973
968.0904,89.493
969.0546,89.2759
970.0189,89.0438
970.9831,88.7954
971.9473,88.5302
972.9116,88.2479
973.8758,87.9485
974.8400,87.6322
975.8043,87.2986
976.7685,86.9466
977.7327,86.575
978.6970,86.1848
979.6612,85.7818
980.6254,85.3763
981.5897,84.9813
982.5539,84.6076
983.5181,84.2612
984.4824,83.9429
985.4466,83.6502
986.4108,83.3808
987.3751,83.1335
988.3393,82.9074
989.3035,82.7
990.2678,82.5066
991.2320,82.3209
992.1962,82.1364
993.1605,81.948
994.1247,81.7519
995.0889,81.5448
996.0532,81.3245
997.0174,81.0901
997.9816,80.8423
998.9459,80.5829
999.9101,80.3137
1000.8743,80.0359
1001.8386,79.7507
1002.8028,79.4602
1003.7670,79.1673
1004.7313,78.8739
1005.6955,78.58
1006.6597,78.2822
1007.6240,77.9751
1008.5882,77.6537
1009.5524,77.3165
1010.5167,76.9669
1011.4809,76.6137
1012.4451,76.269
1013.4094,75.9446
1014.3736,75.6474
1015.3378,75.3775
1016.3021,75.1307
1017.2663,74.9045
1018.2305,74.7017
1019.1948,74.5283
1020.1590,74.3821
1021.1232,74.2428
1022.0875,74.0727
1023.0517,73.8344
1024.0160,73.5179
1024.9802,73.1589
1025.9445,72.8327
1026.9087,72.621
1027.8729,72.5695
1028.8372,72.6619
1029.8014,72.8252
1030.7656,72.9644
1031.7299,73.0041
1032.6941,72.9174
1033.6583,72.7268
1034.6226,72.4852
1035.5868,72.25
1036.5510,72.0616
1037.5153,71.934
1038.4795,71.8552
1039.4437,71.7954
1040.4080,71.72
1041.3722,71.603
1042.3364,71.4372
1043.3007,71.2361
1044.2649,71.0251
1045.2291,70.8293
1046.1934,70.6637
1047.1576,70.5321
1048.1218,70.4337
1049.0861,70.3697
1050.0503,70.3443
1051.0145,70.3585
1051.9788,70.4045
1052.9430,70.4678
1053.9072,70.5402
1054.8715,70.635
1055.8357,70.7923
1056.7999,71.0639
1057.7642,71.4812
1058.7284,72.0216
1059.6926,72.5984
1060.6569,73.0868
1061.6211,73.3804
1062.5853,73.4493
1063.5496,73.3674
1064.5138,73.2854
1065.4780,73.3622
1066.4423,73.6871
1067.4065,74.2379
1068.3707,74.896
1069.3350,75.5094
1070.2992,75.9657
1071.2634,76.2351
1072.2277,76.3664
1073.1919,76.4472
1074.1561,76.5564
1075.1204,76.7376
1076.0846,76.9987
1077.0488,77.329
1078.0131,77.7159
1078.9773,78.1518
1079.9415,78.6312
1080.9058,79.1447
1081.8700,79.6781
1082.8342,80.2148
1083.7985,80.7411
1084.7627,81.2499
1085.7269,81.7432
1086.6912,82.2313
1087.6554,82.7285
1088.6196,83.2464
1089.5839,83.7844
1090.5481,84.3251
1091.5123,84.837
1092.4766,85.2851
1093.4408,85.6459
1094.4050,85.9153
1095.3693,86.109
1096.3335,86.2534
1097.2977,86.3746
1098.2620,86.4907
1099.2262,86.6112
1100.1904,86.7398
1101.1547,86.8784
1102.1189,87.0298
1103.0831,87.1978
1104.0474,87.3868
1105.0116,87.6015
1105.9758,87.8461
1106.9401,88.123
1107.9043,88.4314
1108.8685,88.7671
1109.8328,89.1235
1110.7970,89.4933
1111.7612,89.8702
1112.7255,90.2488
1113.6897,90.6239
1114.6539,90.9899
1115.6182,91.3401
1116.5824,91.6687
1117.5466,91.9709
1118.5109,92.2448
1119.4751,92.4907
1120.4393,92.7116
1121.4036,92.9125
1122.3678,93.0997
1123.3320,93.2799
1124.2963,93.4587
1125.2605,93.6398
1126.2247,93.8239
1127.1890,94.0091
1128.1532,94.1915
1129.1174,94.3659
1130.0817,94.5274
1131.0459,94.6723
1132.0101,94.7989
1132.9744,94.9075
1133.9386,95.0005
1134.9028,95.0805
1135.8671,95.1494
1136.8313,95.208
1137.7955,95.2556
1138.7598,95.2917
1139.7240,95.3161
1140.6882,95.3296
1141.6525,95.3331
1142.6167,95.328
1143.5809,95.3159
1144.5452,95.2991
1145.5094,95.2806
1146.4736,95.2629
1147.4379,95.2466
1148.4021,95.2296
1149.3663,95.2085
1150.3306,95.1799
1151.2948,95.1436
1152.2590,95.1024
1153.2233,95.062
1154.1875,95.0287
1155.1517,95.0079
1156.1160,95.0044
1157.0802,95.0232
1158.0444,95.0698
1159.0087,95.15
1159.9729,95.2678
1160.9371,95.4253
1161.9014,95.6211
1162.8656,95.8525
1163.8298,96.1153
1164.7941,96.4053
1165.7583,96.7168
1166.7225,97.0419
1167.6868,97.3706
1168.6510,97.6918
1169.6152,97.9962
1170.5795,98.2782
1171.5437,98.5359
1172.5079,98.7702
1173.4722,98.9816
1174.4364,99.1684
1175.4006,99.3277
1176.3649,99.4567
1177.3291,99.5558
1178.2933,99.6285
1179.2576,99.6804
1180.2218,99.7157
1181.1860,99.7353
1182.1503,99.737
1183.1145,99.7182
1184.0787,99.6788
1185.0430,99.6219
1186.0072,99.553
1186.9714,99.4761
1187.9357,99.3921
1188.8999,99.298
1189.8641,99.1893
1190.8284,99.0628
1191.7926,98.9271
1192.7568,98.7771
1193.7211,98.6171
1194.6853,98.4523
1195.6495,98.2866
1196.6138,98.1224
1197.5780,97.96
1198.5422,97.7979
1199.5065,97.7124
1200.4707,97.5343
1201.4349,97.3495
1202.3992,97.1587
1203.3634,96.9648
1204.3276,96.7717
1205.2919,96.5833
1206.2561,96.4022
1207.2203,96.2294
1208.1846,96.0634
1209.1488,95.9019
1210.1130,95.742
1211.0773,95.5809
1212.0415,95.4161
1213.0057,95.2452
1213.9700,95.0658
1214.9342,94.877
1215.8984,94.6791
1216.8627,94.4756
1217.8269,94.2711
1218.7911,94.0694
1219.7554,93.8724
1220.7196,93.6801
1221.6838,93.4922
1222.6481,93.3101
1223.6123,93.1378
1224.5765,92.9812
1225.5408,92.8467
1226.5050,92.7395
1227.4692,92.6621
1228.4335,92.6145
1229.3977,92.5947
1230.3619,92.6012
1231.3262,92.6359
1232.2904,92.7033
1233.2546,92.8063
1234.2189,92.9371
1235.1831,93.0704
1236.1473,93.1661
1237.1116,93.184
1238.0758,93.1065
1239.0400,92.9533
1240.0043,92.7778
1240.9685,92.642
1241.9327,92.5845
1242.8970,92.5991
1243.8612,92.6392
1244.8254,92.6452
1245.7897,92.5781
1246.7539,92.4384
1247.7181,92.2608
1248.6824,92.0919
1249.6466,91.9655
1250.6108,91.8909
1251.5751,91.8569
1252.5393,91.8439
1253.5035,91.836
1254.4678,91.8264
1255.4320,91.8155
1256.3962,91.8083
1257.3605,91.8116
1258.3247,91.8329
1259.2889,91.8787
1260.2532,91.9526
1261.2174,92.0533
1262.1816,92.1751
1263.1459,92.3109
1264.1101,92.455
1265.0743,92.6052
1266.0386,92.7615
1267.0028,92.9258
1267.9670,93.1008
1268.9313,93.2895
1269.8955,93.4946
1270.8597,93.7173
1271.8240,93.9555
1272.7882,94.2032
1273.7524,94.4516
1274.7167,94.6916
1275.6809,94.9173
1276.6451,95.1271
1277.6094,95.3236
1278.5736,95.5121
1279.5378,95.6979
1280.5021,95.883
1281.4663,96.0658
1282.4305,96.2414
1283.3948,96.4042
1284.3590,96.5509
1285.3232,96.6814
1286.2875,96.7994
1287.2517,96.9098
1288.2159,97.0164
1289.1802,97.1195
1290.1444,97.2152
1291.1086,97.2976
1292.0729,97.3611
1293.0371,97.404
1294.0013,97.429
1294.9656,97.442
1295.9298,97.4497
1296.8940,97.456
1297.8583,97.4605
1298.8225,97.4593
1299.7867,97.4468
1300.7510,97.4184
1301.7152,97.3718
1302.6794,97.3085
1303.6437,97.2337
1304.6079,97.1537
1305.5721,97.0745
1306.5364,96.9983
1307.5006,96.9225
1308.4648,96.8413
1309.4291,96.7495
1310.3933,96.6477
1311.3575,96.543
1312.3218,96.4465
1313.2860,96.3674
1314.2502,96.308
1315.2145,96.2656
1316.1787,96.238
1317.1429,96.2287
1318.1072,96.2471
1319.0714,96.3005
1320.0356,96.3859
1320.9999,96.4889
1321.9641,96.5898
1322.9283,96.6741
1323.8926,96.7362
1324.8568,96.7788
1325.8210,96.8075
1326.7853,96.8265
1327.7495,96.8375
1328.7137,96.8408
1329.6780,96.8379
1330.6422,96.831
1331.6064,96.8198
1332.5707,96.7983
1333.5349,96.7535
1334.4991,96.6706
1335.4634,96.542
1336.4276,96.3794
1337.3918,96.2246
1338.3561,96.1442
1339.3203,96.1935
1340.2845,96.3691
1341.2488,96.6067
1342.2130,96.8293
1343.1772,96.9885
1344.1415,97.0717
1345.1057,97.0896
1346.0699,97.0641
1347.0342,97.0199
1347.9984,96.9753
1348.9626,96.936
1349.9269,96.8949
1350.8911,96.8393
1351.8553,96.7603
1352.8196,96.6578
1353.7838,96.5408
1354.7480,96.4216
1355.7123,96.3068
1356.6765,96.1924
1357.6407,96.0648
1358.6050,95.908
1359.5692,95.7129
1360.5334,95.4909
1361.4977,95.2818
1362.4619,95.1324
1363.4261,95.0531
1364.3904,95.0066
1365.3546,94.9461
1366.3188,94.8474
1367.2831,94.7115
1368.2473,94.5529
1369.2115,94.3864
1370.1758,94.2188
1371.1400,94.048
1372.1042,93.8735
1373.0685,93.7101
1374.0327,93.5889
1374.9969,93.5347
1375.9612,93.541
1376.9254,93.5795
1377.8896,93.6276
1378.8539,93.6815
1379.8181,93.7472
1380.7823,93.8278
1381.7466,93.9181
1382.7108,94.0111
1383.6750,94.1086
1384.6393,94.2262
1385.6035,94.3866
1386.5677,94.5954
1387.5320,94.8056
1388.4962,94.9238
1389.4604,94.8775
1390.4247,94.6651
1391.3889,94.3431
1392.3531,93.9975
1393.3174,93.7314
1394.2816,93.6476
1395.2458,93.7946
1396.2101,94.1141
1397.1743,94.4648
1398.1385,94.7139
1399.1028,94.804
1400.0670,94.7503
1401.0313,94.6011
1401.9955,94.4054
1402.9597,94.2019
1403.9240,94.0217
1404.8882,93.8899
1405.8524,93.8167
1406.8167,93.7911
1407.7809,93.7939
1408.7451,93.8169
1409.7094,93.8656
1410.6736,93.9462
1411.6378,94.0513
1412.6021,94.1597
1413.5663,94.2523
1414.5305,94.3267
1415.4948,94.3955
1416.4590,94.4823
1417.4232,94.622
1418.3875,94.8385
1419.3517,95.0896
1420.3159,95.284
1421.2802,95.3843
1422.2444,95.4365
1423.2086,95.5076
1424.1729,95.6299
1425.1371,95.7908
1426.1013,95.9561
1427.0656,96.0992
1428.0298,96.2159
1428.9940,96.3195
1429.9583,96.4256
1430.9225,96.5399
1431.8867,96.6632
1432.8510,96.8011
1433.8152,96.9623
1434.7794,97.1516
1435.7437,97.37
1436.7079,97.5996
1437.6721,97.7807
1438.6364,97.8559
1439.6006,97.8349
1440.5648,97.7738
1441.5291,97.7162
1442.4933,97.6669
1443.4575,97.6039
1444.4218,97.5029
1445.3860,97.3568
1446.3502,97.1809
1447.3145,97.0029
1448.2787,96.8454
1449.2429,96.7121
1450.2072,96.5986
1451.1714,96.5136
1452.1356,96.4787
1453.0999,96.5018
1454.0641,96.5474
1455.0283,96.5534
1455.9926,96.5487
1456.9568,96.7402
1457.9210,97.1766
1458.8853,97.5495
1459.8495,97.6895
1460.8137,97.6971
1461.7780,97.7053
1462.7422,97.7709
1463.7064,97.8919
1464.6707,98.0472
1465.6349,98.2039
1466.5991,98.3265
1467.5634,98.4123
1468.5276,98.4871
1469.4918,98.5573
1470.4561,98.5887
1471.4203,98.5584
1472.3845,98.5508
1473.3488,98.7189
1474.3130,99.0645
1475.2772,99.4255
1476.2415,99.6884
1477.2057,99.8475
1478.1699,99.9406
1479.1342,100.003
1480.0984,100.057
1481.0626,100.113
1482.0269,100.164
1482.9911,100.195
1483.9553,100.184
1484.9196,100.111
1485.8838,99.9529
1486.8480,99.7052
1487.8123,99.4342
1488.7765,99.3021
1489.7407,99.4028
1490.7050,99.6111
1491.6692,99.7712
1492.6334,99.82
1493.5977,99.7756
1494.5619,99.6501
1495.5261,99.4342
1496.4904,99.1448
1497.4546,98.8526
1498.4188,98.6095
1499.3831,98.3943
1500.3473,98.1925
1501.3115,98.0476
1502.2758,98.0105
1503.2400,98.0649
1504.2042,98.0704
1505.1685,97.7744
1506.1327,97.0709
1507.0969,96.4354
1508.0612,96.397
1509.0254,96.6905
1509.9896,96.9521
1510.9539,97.1365
1511.9181,97.2954
1512.8823,97.4461
1513.8466,97.5751
1514.8108,97.6768
1515.7750,97.7763
1516.7393,97.9124
1517.7035,98.1022
1518.6677,98.3303
1519.6320,98.5695
1520.5962,98.8027
1521.5604,99.0186
1522.5247,99.2031
1523.4889,99.3581
1524.4531,99.5175
1525.4174,99.717
1526.3816,99.9529
1527.3458,100.182
1528.3101,100.361
1529.2743,100.48
1530.2385,100.547
1531.2028,100.573
1532.1670,100.566
1533.1312,100.557
1534.0955,100.576
1535.0597,100.638
1536.0239,100.749
1536.9882,100.877
1537.9524,100.892
1538.9166,100.578
1539.8809,99.8992
1540.8451,99.3414
1541.8093,99.3527
1542.7736,99.6881
1543.7378,100.008
1544.7020,100.225
1545.6663,100.346
1546.6305,100.385
1547.5947,100.361
1548.5590,100.3
1549.5232,100.228
1550.4874,100.16
1551.4517,100.093
1552.4159,100.027
1553.3801,99.9798
1554.3444,99.9844
1555.3086,100.051
1556.2728,100.142
1557.2371,100.24
1558.2013,100.499
1559.1655,100.943
1560.1298,101.139
1561.0940,100.869
1562.0582,100.388
1563.0225,99.9576
1563.9867,99.6899
1564.9509,99.581
1565.9152,99.5684
1566.8794,99.5782
1567.8436,99.5663
1568.8079,99.5339
1569.7721,99.4944
1570.7363,99.444
1571.7006,99.3839
1572.6648,99.329
1573.6290,99.2787
1574.5933,99.2093
1575.5575,99.1219
1576.5217,99.0598
1577.4860,99.0222
1578.4502,98.9526
1579.4144,98.841
1580.3787,98.7285
1581.3429,98.6454
1582.3071,98.5886
1583.2714,98.5367
1584.2356,98.4723
1585.1998,98.3908
1586.1641,98.2974
1587.1283,98.2
1588.0925,98.1053
1589.0568,98.0169
1590.0210,97.936
1590.9852,97.8622
1591.9495,97.7962
1592.9137,97.7423
1593.8779,97.7094
1594.8422,97.7041
1595.8064,97.7226
1596.7706,97.7474
1597.7349,97.7559
1598.6991,97.7331
1599.6633,97.6799
1600.6276,97.6123
1601.5918,97.552
1602.5560,97.5122
1603.5203,97.4893
1604.4845,97.4691
1605.4487,97.4414
1606.4130,97.4105
1607.3772,97.3932
1608.3414,97.4058
1609.3057,97.4485
1610.2699,97.5037
1611.2341,97.558
1612.1984,97.6153
1613.1626,97.6814
1614.1268,97.7435
1615.0911,97.783
1616.0553,97.8069
1617.0195,97.8219
1617.9838,97.7921
1618.9480,97.6985
1619.9122,97.5816
1620.8765,97.4927
1621.8407,97.4518
1622.8049,97.4536
1623.7692,97.4839
1624.7334,97.5244
1625.6976,97.5589
1626.6619,97.583
1627.6261,97.598
1628.5903,97.6041
1629.5546,97.6085
1630.5188,97.6349
1631.4830,97.7077
1632.4473,97.8129
1633.4115,97.8725
1634.3757,97.7971
1635.3400,97.6257
1636.3042,97.5194
1637.2684,97.5038
1638.2327,97.4743
1639.1969,97.4016
1640.1611,97.332
1641.1254,97.3118
1642.0896,97.3523
1643.0538,97.4168
1644.0181,97.4194
1644.9823,97.2742
1645.9465,97.0151
1646.9108,96.8214
1647.8750,96.8227
1648.8392,97.0165
1649.8035,97.3671
1650.7677,97.8056
1651.7319,98.1939
1652.6962,98.4361
1653.6604,98.5645
1654.6246,98.4999
1655.5889,98.1796
1656.5531,97.7744
1657.5173,97.4745
1658.4816,97.3483
1659.4458,97.3583
1660.4100,97.4248
1661.3743,97.492
1662.3385,97.5506
1663.3027,97.6009
1664.2670,97.6331
1665.2312,97.6476
1666.1954,97.6477
1667.1597,97.6195
1668.1239,97.55
1669.0881,97.4749
1670.0524,97.4671
1671.0166,97.5539
1671.9808,97.7065
1672.9451,97.8964
1673.9093,98.097
1674.8735,98.2539
1675.8378,98.2918
1676.8020,98.1711
1677.7662,97.9387
1678.7305,97.7082
1679.6947,97.5852
1680.6589,97.607
1681.6232,97.7324
1682.5874,97.8951
1683.5516,98.0749
1684.5159,98.2299
1685.4801,98.2341
1686.4443,98.0589
1687.4086,97.8242
1688.3728,97.6594
1689.3370,97.6246
1690.3013,97.7141
1691.2655,97.884
1692.2297,98.0723
1693.1940,98.2078
1694.1582,98.2247
1695.1224,98.0992
1696.0867,97.8997
1697.0509,97.7889
1698.0151,97.9151
1698.9794,98.2472
1699.9436,98.5556
1700.9078,98.6154
1701.8721,98.3955
1702.8363,98.0343
1703.8005,97.7065
1704.7648,97.5271
1705.7290,97.5189
1706.6932,97.619
1707.6575,97.7259
1708.6217,97.7693
1709.5859,97.7426
1710.5502,97.6785
1711.5144,97.6073
1712.4786,97.5348
1713.4429,97.4444
1714.4071,97.3258
1715.3713,97.2392
1716.3356,97.3433
1717.2998,97.7101
1718.2640,98.123
1719.2283,98.3292
1720.1925,98.3162
1721.1567,98.2188
1722.1210,98.1573
1723.0852,98.1796
1724.0494,98.267
1725.0137,98.3638
1725.9779,98.4133
1726.9421,98.3903
1727.9064,98.3138
1728.8706,98.2325
1729.8348,98.1975
1730.7991,98.2382
1731.7633,98.3623
1732.7275,98.5659
1733.6918,98.8022
1734.6560,98.9502
1735.6202,98.9241
1736.5845,98.7752
1737.5487,98.6168
1738.5129,98.5183
1739.4772,98.4783
1740.4414,98.4517
1741.4056,98.3928
1742.3699,98.2847
1743.3341,98.1431
1744.2983,97.9995
1745.2626,97.8798
1746.2268,97.8
1747.1910,97.7805
1748.1553,97.8648
1749.1195,98.099
1750.0837,98.4555
1751.0480,98.8083
1752.0122,99.039
1752.9764,99.1282
1753.9407,99.1298
1754.9049,99.106
1755.8691,99.0936
1756.8334,99.1046
1757.7976,99.1375
1758.7618,99.1893
1759.7261,99.2602
1760.6903,99.3507
1761.6545,99.4534
1762.6188,99.5482
1763.5830,99.6144
1764.5472,99.6472
1765.5115,99.6578
1766.4757,99.6578
1767.4399,99.6471
1768.4042,99.6156
1769.3684,99.5579
1770.3326,99.4947
1771.2969,99.4756
1772.2611,99.5348
1773.2253,99.6333
1774.1896,99.6931
1775.1538,99.6844
1776.1180,99.6387
1777.0823,99.5995
1778.0465,99.5877
1779.0107,99.6016
1779.9750,99.6346
1780.9392,99.6846
1781.9034,99.7519
1782.8677,99.83
1783.8319,99.9012
1784.7961,99.9421
1785.7604,99.9385
1786.7246,99.8988
1787.6888,99.8478
1788.6531,99.8049
1789.6173,99.7676
1790.5815,99.7238
1791.5458,99.6804
1792.5100,99.6574
1793.4742,99.6439
1794.4385,99.6119
1795.4027,99.5652
1796.3669,99.5338
1797.3312,99.5372
1798.2954,99.5745
1799.2596,99.6291
1800.2239,99.69
1801.1881,99.7545
1802.1523,99.8156
1803.1166,99.8625
1804.0808,99.8877
1805.0450,99.8892
1806.0093,99.8674
1806.9735,99.825
1807.9377,99.7706
1808.9020,99.7229
1809.8662,99.7063
1810.8304,99.7351
1811.7947,99.8006
1812.7589,99.8783
1813.7231,99.9473
1814.6874,99.9989
1815.6516,100.032
1816.6158,100.049
1817.5801,100.049
1818.5443,100.036
1819.5085,100.014
1820.4728,99.9911
1821.4370,99.972
1822.4012,99.9578
1823.3655,99.9446
1824.3297,99.9255
1825.2939,99.8931
1826.2582,99.8451
1827.2224,99.7914
1828.1866,99.7573
1829.1509,99.7717
1830.1151,99.8395
1831.0793,99.9246
1832.0436,99.9795
1833.0078,99.9874
1833.9720,99.9658
1834.9363,99.9386
1835.9005,99.9193
1836.8647,99.9094
1837.8290,99.9062
1838.7932,99.91
1839.7574,99.927
1840.7217,99.9581
1841.6859,99.9884
1842.6501,99.9971
1843.6144,99.9812
1844.5786,99.9576
1845.5428,99.9366
1846.5071,99.9179
1847.4713,99.9103
1848.4355,99.9286
1849.3998,99.9756
1850.3640,100.036
1851.3282,100.087
1852.2925,100.115
1853.2567,100.119
1854.2209,100.107
1855.1852,100.088
1856.1494,100.068
1857.1136,100.048
1858.0779,100.033
1859.0421,100.028
1860.0063,100.032
1860.9706,100.037
1861.9348,100.027
1862.8990,99.987
1863.8633,99.9139
1864.8275,99.8117
1865.7917,99.6937
1866.7560,99.5921
1867.7202,99.5598
1868.6844,99.6336
1869.6487,99.7828
1870.6129,99.9299
1871.5771,100.024
1872.5414,100.068
1873.5056,100.084
1874.4698,100.09
1875.4341,100.093
1876.3983,100.092
1877.3625,100.087
1878.3268,100.081
1879.2910,100.074
1880.2552,100.066
1881.2195,100.056
1882.1837,100.041
1883.1479,100.019
1884.1122,99.9922
1885.0764,99.9647
1886.0406,99.9401
1887.0049,99.9214
1887.9691,99.9112
1888.9333,99.9103
1889.8976,99.9138
1890.8618,99.9114
1891.8260,99.8958
1892.7903,99.8703
1893.7545,99.847
1894.7188,99.8392
1895.6830,99.8542
1896.6472,99.8876
1897.6115,99.926
1898.5757,99.9549
1899.5399,99.967
1900.5042,99.9636
1901.4684,99.9502
1902.4326,99.9313
1903.3969,99.9071
1904.3611,99.8736
1905.3253,99.828
1906.2896,99.7735
1907.2538,99.7225
1908.2180,99.6926
1909.1823,99.6964
1910.1465,99.7314
1911.1107,99.779
1912.0750,99.8193
1913.0392,99.8437
1914.0034,99.855
1914.9677,99.859
1915.9319,99.8576
1916.8961,99.8466
1917.8604,99.8178
1918.8246,99.7639
1919.7888,99.6893
1920.7531,99.614
1921.7173,99.5663
1922.6815,99.567
1923.6458,99.6159
1924.6100,99.6909
1925.5742,99.762
1926.5385,99.8094
1927.5027,99.8292
1928.4669,99.828
1929.4312,99.8154
1930.3954,99.7999
1931.3596,99.7869
1932.3239,99.7806
1933.2881,99.7832
1934.2523,99.7945
1935.2166,99.8093
1936.1808,99.8189
1937.1450,99.8143
1938.1093,99.7904
1939.0735,99.7475
1940.0377,99.6915
1941.0020,99.6349
1941.9662,99.5949
1942.9304,99.5843
1943.8947,99.6023
1944.8589,99.6382
1945.8231,99.6812
1946.7874,99.726
1947.7516,99.7694
1948.7158,99.8073
1949.6801,99.8341
1950.6443,99.8464
1951.6085,99.8451
1952.5728,99.8364
1953.5370,99.8283
1954.5012,99.8267
1955.4655,99.8325
1956.4297,99.8425
1957.3939,99.8521
1958.3582,99.8588
1959.3224,99.8623
1960.2866,99.8623
1961.2509,99.8562
1962.2151,99.8398
1963.1793,99.8104
1964.1436,99.7711
1965.1078,99.7328
1966.0720,99.7118
1967.0363,99.7205
1968.0005,99.7589
1968.9647,99.8131
1969.9290,99.8646
1970.8932,99.9006
1971.8574,99.9176
1972.8217,99.9197
1973.7859,99.9139
1974.7501,99.9068
1975.7144,99.9014
1976.6786,99.8982
1977.6428,99.8962
1978.6071,99.8951
1979.5713,99.8946
1980.5355,99.8947
1981.4998,99.8941
1982.4640,99.8907
1983.4282,99.8823
1984.3925,99.8675
1985.3567,99.8463
1986.3209,99.8195
1987.2852,99.7888
1988.2494,99.7564
1989.2136,99.7266
1990.1779,99.7062
1991.1421,99.7028
1992.1063,99.7203
1993.0706,99.7545
1994.0348,99.7944
1994.9990,99.8286
1995.9633,99.8507
1996.9275,99.8605
1997.8917,99.862
1998.8560,99.8615
1999.8202,99.8639
2000.7844,99.8705
2001.7487,99.8788
2002.7129,99.8847
2003.6771,99.8847
2004.6414,99.8777
2005.6056,99.8659
2006.5698,99.8532
2007.5341,99.8439
2008.4983,99.8409
2009.4625,99.8439
2010.4268,99.8492
2011.3910,99.8501
2012.3552,99.8401
2013.3195,99.8165
2014.2837,99.7822
2015.2479,99.7464
2016.2122,99.7213
2017.1764,99.7159
2018.1406,99.7305
2019.1049,99.7571
2020.0691,99.7844
2021.0333,99.8042
2021.9976,99.8141
2022.9618,99.8166
2023.9260,99.8163
2024.8903,99.8169
2025.8545,99.8199
2026.8187,99.8245
2027.7830,99.8292
2028.7472,99.8321
2029.7114,99.8325
2030.6757,99.8301
2031.6399,99.8257
2032.6041,99.821
2033.5684,99.8174
2034.5326,99.8151
2035.4968,99.8116
2036.4611,99.8038
2037.4253,99.7886
2038.3895,99.7664
2039.3538,99.7416
2040.3180,99.7216
2041.2822,99.7127
2042.2465,99.7171
2043.2107,99.7318
2044.1749,99.7501
2045.1392,99.7658
2046.1034,99.7752
2047.0676,99.778
2048.0320,99.7758
2048.9961,99.7711
2049.9604,99.7661
2050.9246,99.7622
2051.8889,99.7598
2052.8530,99.759
2053.8174,99.7585
2054.7815,99.7578
2055.7458,99.7565
2056.7100,99.7547
2057.6743,99.7523
2058.6384,99.7481
2059.6028,99.7397
2060.5669,99.7251
2061.5313,99.7045
2062.4954,99.6819
2063.4597,99.6641
2064.4238,99.6575
2065.3882,99.6647
2066.3523,99.6826
2067.3167,99.7041
2068.2808,99.7221
2069.2451,99.733
2070.2092,99.7367
2071.1736,99.7355
2072.1377,99.732
2073.1021,99.7277
2074.0662,99.7226
2075.0305,99.7169
2075.9946,99.7112
2076.9590,99.7066
2077.9231,99.704
2078.8875,99.7037
2079.8516,99.7044
2080.8159,99.7048
2081.7800,99.7032
2082.7444,99.6989
2083.7085,99.6918
2084.6729,99.6825
2085.6370,99.6723
2086.6013,99.6622
2087.5654,99.6533
2088.5298,99.6464
2089.4939,99.6419
2090.4583,99.6398
2091.4224,99.6396
2092.3867,99.6405
2093.3508,99.6415
2094.3152,99.6416
2095.2793,99.6405
2096.2437,99.6383
2097.2078,99.6353
2098.1721,99.6318
2099.1362,99.6281
2100.1006,99.6229
2101.0647,99.6192
2102.0291,99.6158
2102.9932,99.6127
2103.9575,99.6102
2104.9216,99.6079
2105.8860,99.6056
2106.8501,99.6028
2107.8145,99.5992
2108.7786,99.5941
2109.7429,99.5867
2110.7070,99.577
2111.6714,99.5662
2112.6355,99.557
2113.5999,99.5523
2114.5640,99.5537
2115.5283,99.5604
2116.4924,99.5692
2117.4568,99.5765
2118.4209,99.5799
2119.3853,99.5792
2120.3494,99.5761
2121.3137,99.5727
2122.2778,99.5697
2123.2422,99.5668
2124.2063,99.5632
2125.1707,99.5589
2126.1348,99.5549
2127.0991,99.5533
2128.0632,99.5555
2129.0276,99.5613
2129.9917,99.5687
2130.9561,99.5744
2131.9202,99.5753
2132.8845,99.5704
2133.8486,99.5614
2134.8130,99.5522
2135.7771,99.5471
2136.7415,99.5487
2137.7056,99.5568
2138.6699,99.5685
2139.6340,99.5799
2140.5984,99.5882
2141.5625,99.5927
2142.5269,99.5948
2143.4910,99.5965
2144.4553,99.5994
2145.4194,99.6037
2146.3838,99.6088
2147.3479,99.6133
2148.3123,99.6164
2149.2764,99.6174
2150.2407,99.6162
2151.2048,99.6134
2152.1692,99.6101
2153.1333,99.6077
2154.0977,99.6076
2155.0618,99.6101
2156.0261,99.6144
2156.9902,99.6186
2157.9546,99.6211
2158.9187,99.6209
2159.8831,99.6188
2160.8472,99.6164
2161.8115,99.6158
2162.7756,99.618
2163.7400,99.6228
2164.7041,99.6288
2165.6685,99.6342
2166.6326,99.6375
2167.5969,99.6382
2168.5610,99.6366
2169.5254,99.6338
2170.4895,99.6308
2171.4539,99.6287
2172.4180,99.6279
2173.3823,99.6283
2174.3464,99.6297
2175.3108,99.632
2176.2749,99.6353
2177.2393,99.6396
2178.2034,99.6444
2179.1677,99.6486
2180.1318,99.6504
2181.0962,99.6486
2182.0603,99.643
2183.0247,99.6353
2183.9888,99.6285
2184.9531,99.6253
2185.9172,99.6271
2186.8816,99.6333
2187.8457,99.6416
2188.8101,99.6495
2189.7742,99.6553
2190.7385,99.6588
2191.7026,99.6605
2192.6670,99.6611
2193.6311,99.6612
2194.5955,99.6608
2195.5596,99.6601
2196.5239,99.6591
2197.4880,99.6581
2198.4524,99.6571
2199.4165,99.6557
2200.3809,99.6541
2201.3450,99.6527
2202.3093,99.6525
2203.2734,99.6542
2204.2378,99.6582
2205.2019,99.6634
2206.1663,99.6686
2207.1304,99.6725
2208.0947,99.6746
2209.0588,99.6748
2210.0232,99.6736
2210.9873,99.6711
2211.9517,99.6674
2212.9158,99.6627
2213.8801,99.6578
2214.8442,99.6538
2215.8086,99.6515
2216.7727,99.651
2217.7371,99.6516
2218.7012,99.652
2219.6655,99.6512
2220.6296,99.6491
2221.5940,99.646
2222.5581,99.643
2223.5225,99.641
2224.4866,99.6401
2225.4509,99.64
2226.4150,99.6395
2227.3794,99.6374
2228.3435,99.6327
2229.3079,99.6251
2230.2720,99.6152
2231.2363,99.6043
2232.2004,99.5941
2233.1648,99.5858
2234.1289,99.58
2235.0933,99.5763
2236.0574,99.5739
2237.0217,99.5716
2237.9858,99.5684
2238.9502,99.5636
2239.9143,99.5571
2240.8787,99.5488
2241.8428,99.5392
2242.8071,99.5288
2243.7712,99.5181
2244.7356,99.5074
2245.6997,99.4968
2246.6641,99.4863
2247.6282,99.4759
2248.5925,99.4653
2249.5566,99.4545
2250.5210,99.4434
2251.4851,99.4321
2252.4495,99.4204
2253.4136,99.4077
2254.3779,99.3933
2255.3420,99.3766
2256.3064,99.3577
2257.2705,99.3375
2258.2349,99.3182
2259.1990,99.3017
2260.1633,99.2896
2261.1274,99.2819
2262.0918,99.2774
2263.0559,99.2744
2264.0203,99.2718
2264.9844,99.2689
2265.9487,99.266
2266.9128,99.2629
2267.8772,99.259
2268.8413,99.2535
2269.8057,99.246
2270.7698,99.2371
2271.7341,99.2288
2272.6982,99.2234
2273.6626,99.2233
2274.6267,99.2292
2275.5911,99.241
2276.5552,99.2573
2277.5195,99.2764
2278.4836,99.2963
2279.4480,99.3148
2280.4121,99.3294
2281.3765,99.337
2282.3406,99.3349
2283.3049,99.3211
2284.2690,99.2953
2285.2334,99.2595
2286.1975,99.2175
2287.1619,99.1735
2288.1260,99.1307
2289.0903,99.0889
2290.0544,99.0461
2291.0188,99
2291.9829,98.9512
2292.9473,98.9036
2293.9114,98.8635
2294.8757,98.8361
2295.8398,98.8229
2296.8042,98.8223
2297.7683,98.8318
2298.7327,98.8513
2299.6968,98.8833
2300.6611,98.9305
2301.6252,98.9914
2302.5896,99.0576
2303.5537,99.1152
2304.5181,99.1503
2305.4822,99.1568
2306.4465,99.1418
2307.4106,99.1253
2308.3750,99.1337
2309.3391,99.1875
2310.3035,99.291
2311.2676,99.4294
2312.2319,99.5753
2313.1960,99.7028
2314.1604,99.7999
2315.1245,99.8734
2316.0889,99.9432
2317.0530,100.03
2318.0173,100.145
2318.9814,100.277
2319.9458,100.393
2320.9099,100.447
2321.8743,100.394
2322.8384,100.221
2323.8027,99.9601
2324.7668,99.6811
2325.7312,99.4653
2326.6953,99.372
2327.6597,99.4184
2328.6238,99.5604
2329.5881,99.7163
2330.5522,99.8015
2331.5166,99.7676
2332.4807,99.6253
2333.4451,99.4322
2334.4092,99.2573
2335.3735,99.1452
2336.3376,99.0986
2337.3020,99.0823
2338.2661,99.045
2339.2305,98.9508
2340.1946,98.8085
2341.1589,98.6894
2342.1230,98.7127
2343.0874,98.9556
2344.0515,99.3144
2345.0159,99.5278
2345.9800,99.4315
2346.9443,99.1098
2347.9084,98.7837
2348.8728,98.6385
2349.8369,98.7351
2350.8013,99.0007
2351.7654,99.2734
2352.7297,99.398
2353.6938,99.3327
2354.6582,99.159
2355.6223,98.9619
2356.5867,98.7457
2357.5508,98.4907
2358.5151,98.2347
2359.4792,98.06
2360.4436,98.0164
2361.4077,98.0906
2362.3721,98.2487
2363.3362,98.4791
2364.3005,98.7845
2365.2646,99.1527
2366.2290,99.5495
2367.1931,99.9355
2368.1575,100.283
2369.1216,100.58
2370.0859,100.82
2371.0500,101.001
2372.0144,101.124
2372.9785,101.189
2373.9429,101.193
2374.9070,101.132
2375.8713,101.004
2376.8354,100.816
2377.7998,100.584
2378.7639,100.335
2379.7283,100.097
2380.6924,99.8945
2381.6567,99.7435
2382.6208,99.6488
2383.5852,99.6058
2384.5493,99.6027
2385.5137,99.6251
2386.4778,99.6589
2387.4421,99.693
2388.4063,99.7208
2389.3706,99.7397
2390.3347,99.7506
2391.2991,99.7566
2392.2632,99.7611
2393.2275,99.7664
2394.1917,99.7737
2395.1560,99.7824
2396.1201,99.7916
2397.0845,99.8005
2398.0486,99.8083
2399.0129,99.8144
2399.9771,99.8182
2400.9414,99.8186
2401.9055,99.8154
2402.8699,99.8094
2403.8340,99.8033
2404.7983,99.7999
2405.7625,99.8013
2406.7268,99.8073
2407.6909,99.8157
2408.6553,99.8234
2409.6194,99.8286
2410.5837,99.8313
2411.5479,99.8334
2412.5122,99.8367
2413.4763,99.8424
2414.4407,99.8496
2415.4048,99.8569
2416.3691,99.8629
2417.3333,99.8676
2418.2976,99.8715
2419.2617,99.8754
2420.2261,99.879
2421.1902,99.8821
2422.1545,99.8845
2423.1187,99.887
2424.0830,99.891
2425.0471,99.8981
2426.0115,99.9082
2426.9756,99.92
2427.9399,99.9311
2428.9041,99.9393
2429.8684,99.944
2430.8325,99.9456
2431.7969,99.9457
2432.7610,99.9454
2433.7253,99.9458
2434.6895,99.9473
2435.6538,99.9501
2436.6179,99.9544
2437.5823,99.9601
2438.5464,99.9665
2439.5107,99.9726
2440.4749,99.9774
2441.4392,99.9807
2442.4033,99.9829
2443.3677,99.9851
2444.3318,99.9882
2445.2961,99.9924
2446.2603,99.9971
2447.2246,100.001
2448.1887,100.003
2449.1531,100.004
2450.1172,100.004
2451.0815,100.005
2452.0457,100.009
2453.0100,100.015
2453.9741,100.025
2454.9385,100.035
2455.9026,100.043
2456.8669,100.049
2457.8311,100.051
2458.7954,100.052
2459.7595,100.052
2460.7239,100.053
2461.6880,100.057
2462.6523,100.062
2463.6165,100.067
2464.5808,100.073
2465.5449,100.077
2466.5093,100.08
2467.4734,100.081
2468.4377,100.082
2469.4019,100.082
2470.3662,100.082
2471.3303,100.084
2472.2947,100.088
2473.2588,100.095
2474.2231,100.104
2475.1873,100.114
2476.1516,100.123
2477.1157,100.128
2478.0801,100.129
2479.0442,100.127
2480.0085,100.125
2480.9727,100.126
2481.9370,100.131
2482.9011,100.137
2483.8655,100.144
2484.8296,100.148
2485.7939,100.149
2486.7581,100.146
2487.7224,100.145
2488.6865,100.145
2489.6509,100.151
2490.6150,100.159
2491.5793,100.169
2492.5435,100.177
2493.5078,100.184
2494.4719,100.188
2495.4363,100.192
2496.4004,100.197
2497.3647,100.206
2498.3289,100.217
2499.2932,100.227
2500.2573,100.235
2501.2217,100.239
2502.1858,100.24
2503.1501,100.24
2504.1143,100.242
2505.0786,100.245
2506.0427,100.251
2507.0071,100.257
2507.9712,100.261
2508.9355,100.264
2509.8997,100.265
2510.8640,100.266
2511.8281,100.267
2512.7925,100.27
2513.7566,100.275
2514.7209,100.283
2515.6851,100.293
2516.6494,100.304
2517.6135,100.313
2518.5779,100.319
2519.5420,100.321
2520.5063,100.32
2521.4705,100.319
2522.4348,100.32
2523.3989,100.324
2524.3633,100.33
2525.3274,100.336
2526.2917,100.343
2527.2559,100.35
2528.2202,100.359
2529.1843,100.37
2530.1487,100.38
2531.1128,100.387
2532.0771,100.388
2533.0413,100.383
2534.0056,100.376
2534.9697,100.371
2535.9341,100.371
2536.8982,100.378
2537.8625,100.388
2538.8267,100.4
2539.7910,100.41
2540.7551,100.418
2541.7195,100.424
2542.6836,100.428
2543.6479,100.433
2544.6121,100.439
2545.5764,100.445
2546.5405,100.45
2547.5049,100.455
2548.4690,100.458
2549.4333,100.459
2550.3975,100.459
2551.3618,100.459
2552.3259,100.461
2553.2903,100.464
2554.2544,100.47
2555.2188,100.477
2556.1829,100.485
2557.1472,100.493
2558.1113,100.501
2559.0757,100.507
2560.0398,100.511
2561.0042,100.512
2561.9683,100.51
2562.9326,100.506
2563.8967,100.503
2564.8611,100.501
2565.8252,100.504
2566.7896,100.51
2567.7537,100.519
2568.7180,100.53
2569.6821,100.54
2570.6465,100.549
2571.6106,100.554
2572.5750,100.558
2573.5391,100.56
2574.5034,100.561
2575.4675,100.562
2576.4319,100.564
2577.3960,100.566
2578.3604,100.57
2579.3245,100.573
2580.2888,100.576
2581.2529,100.578
2582.2173,100.581
2583.1814,100.585
2584.1458,100.589
2585.1099,100.594
2586.0742,100.598
2587.0383,100.601
2588.0027,100.601
2588.9668,100.6
2589.9312,100.598
2590.8953,100.596
2591.8596,100.596
2592.8237,100.597
2593.7881,100.6
2594.7522,100.603
2595.7166,100.605
2596.6807,100.607
2597.6450,100.607
2598.6091,100.608
2599.5735,100.611
2600.5376,100.616
2601.5020,100.622
2602.4661,100.627
2603.4304,100.629
2604.3945,100.628
2605.3589,100.625
2606.3230,100.623
2607.2874,100.624
2608.2515,100.629
2609.2158,100.636
2610.1799,100.641
2611.1443,100.642
2612.1084,100.638
2613.0728,100.632
2614.0369,100.628
2615.0012,100.628
2615.9653,100.633
2616.9297,100.64
2617.8938,100.648
2618.8582,100.653
2619.8223,100.654
2620.7866,100.654
2621.7507,100.652
2622.7151,100.651
2623.6792,100.649
2624.6436,100.648
2625.6077,100.649
2626.5720,100.651
2627.5361,100.655
2628.5005,100.66
2629.4646,100.663
2630.4290,100.663
2631.3931,100.659
2632.3574,100.655
2633.3215,100.651
2634.2859,100.65
2635.2500,100.652
2636.2144,100.656
2637.1785,100.662
2638.1428,100.668
2639.1069,100.675
2640.0713,100.681
2641.0354,100.686
2641.9998,100.688
2642.9639,100.688
2643.9282,100.685
2644.8923,100.681
2645.8567,100.677
2646.8208,100.676
2647.7852,100.675
2648.7493,100.673
2649.7136,100.671
2650.6777,100.667
2651.6421,100.663
2652.6062,100.661
2653.5706,100.663
2654.5347,100.668
2655.4990,100.674
2656.4631,100.679
2657.4275,100.682
2658.3916,100.682
2659.3560,100.68
2660.3201,100.677
2661.2844,100.675
2662.2485,100.675
2663.2129,100.676
2664.1770,100.68
2665.1414,100.684
2666.1055,100.688
2667.0698,100.691
2668.0339,100.693
2668.9983,100.694
2669.9624,100.695
2670.9268,100.696
2671.8909,100.697
2672.8552,100.699
2673.8193,100.7
2674.7837,100.702
2675.7478,100.704
2676.7122,100.707
2677.6763,100.71
2678.6406,100.713
2679.6047,100.714
2680.5691,100.712
2681.5332,100.707
2682.4976,100.7
2683.4617,100.695
2684.4260,100.692
2685.3901,100.692
2686.3545,100.691
2687.3186,100.69
2688.2830,100.686
2689.2471,100.682
2690.2114,100.68
2691.1755,100.68
2692.1399,100.683
2693.1040,100.687
2694.0684,100.689
2695.0325,100.687
2695.9968,100.681
2696.9609,100.674
2697.9253,100.668
2698.8894,100.665
2699.8538,100.665
2700.8179,100.665
2701.7822,100.664
2702.7463,100.659
2703.7107,100.65
2704.6748,100.639
2705.6392,100.627
2706.6033,100.617
2707.5676,100.609
2708.5317,100.604
2709.4961,100.601
2710.4602,100.599
2711.4246,100.598
2712.3887,100.598
2713.3530,100.596
2714.3171,100.593
2715.2815,100.588
2716.2456,100.58
2717.2100,100.57
2718.1741,100.561
2719.1384,100.556
2720.1025,100.556
2721.0669,100.56
2722.0310,100.566
2722.9954,100.571
2723.9595,100.571
2724.9238,100.566
2725.8879,100.556
2726.8523,100.545
2727.8164,100.534
2728.7808,100.525
2729.7449,100.518
2730.7092,100.512
2731.6733,100.506
2732.6377,100.5
2733.6018,100.493
2734.5662,100.485
2735.5303,100.477
2736.4946,100.467
2737.4587,100.455
2738.4231,100.443
2739.3872,100.431
2740.3516,100.421
2741.3157,100.415
2742.2800,100.411
2743.2441,100.408
2744.2085,100.408
2745.1726,100.409
2746.1370,100.411
2747.1011,100.413
2748.0654,100.413
2749.0295,100.411
2749.9939,100.405
2750.9580,100.398
2751.9224,100.392
2752.8865,100.39
2753.8508,100.391
2754.8149,100.393
2755.7793,100.391
2756.7434,100.384
2757.7078,100.37
2758.6719,100.352
2759.6362,100.334
2760.6003,100.321
2761.5647,100.314
2762.5288,100.313
2763.4932,100.318
2764.4573,100.323
2765.4216,100.327
2766.3857,100.327
2767.3501,100.323
2768.3142,100.317
2769.2786,100.311
2770.2427,100.308
2771.2070,100.307
2772.1711,100.307
2773.1355,100.304
2774.0996,100.297
2775.0640,100.288
2776.0281,100.277
2776.9924,100.267
2777.9565,100.255
2778.9209,100.242
2779.8850,100.227
2780.8494,100.21
2781.8135,100.194
2782.7778,100.18
2783.7419,100.166
2784.7063,100.154
2785.6704,100.144
2786.6348,100.133
2787.5989,100.119
2788.5632,100.101
2789.5273,100.08
2790.4917,100.057
2791.4558,100.032
2792.4202,100.008
2793.3843,99.9856
2794.3486,99.9652
2795.3127,99.9467
2796.2771,99.9291
2797.2412,99.911
2798.2056,99.891
2799.1697,99.8686
2800.1340,99.8441
2801.0981,99.8188
2802.0625,99.7939
2803.0266,99.7708
2803.9910,99.7496
2804.9551,99.7293
2805.9194,99.708
2806.8835,99.684
2807.8479,99.6566
2808.8120,99.6267
2809.7764,99.5958
2810.7405,99.5654
2811.7048,99.536
2812.6689,99.5069
2813.6333,99.4767
2814.5974,99.4445
2815.5618,99.4093
2816.5259,99.3703
2817.4902,99.3264
2818.4543,99.2764
2819.4187,99.2201
2820.3828,99.1588
2821.3472,99.0957
2822.3113,99.0346
2823.2756,98.9782
2824.2397,98.9272
2825.2041,98.8798
2826.1682,98.8327
2827.1326,98.7828
2828.0967,98.7277
2829.0610,98.6664
2830.0251,98.5992
2830.9895,98.5276
2831.9536,98.4538
2832.9180,98.3797
2833.8821,98.307
2834.8464,98.2353
2835.8105,98.1635
2836.7749,98.0894
2837.7390,98.0116
2838.7034,97.9302
2839.6675,97.8466
2840.6318,97.7638
2841.5959,97.6847
2842.5603,97.6115
2843.5244,97.5442
2844.4888,97.4797
2845.4529,97.4125
2846.4172,97.3357
2847.3813,97.2437
2848.3457,97.1342
2849.3098,97.008
2850.2742,96.8684
2851.2383,96.7185
2852.2026,96.5603
2853.1667,96.3946
2854.1311,96.2221
2855.0952,96.0442
2856.0596,95.8628
2857.0237,95.6784
2857.9880,95.4894
2858.9521,95.2925
2859.9165,95.0842
2860.8806,94.8631
2861.8450,94.6319
2862.8091,94.3974
2863.7734,94.169
2864.7375,93.9559
2865.7019,93.7646
2866.6660,93.5974
2867.6304,93.4522
2868.5945,93.3248
2869.5588,93.2105
2870.5229,93.1055
2871.4873,93.0061
2872.4514,92.9082
2873.4158,92.8063
2874.3799,92.6946
2875.3442,92.5685
2876.3083,92.4253
2877.2727,92.2648
2878.2368,92.0886
2879.2012,91.9003
2880.1653,91.7062
2881.1296,91.5169
2882.0938,91.3461
2883.0581,91.208
2884.0222,91.1118
2884.9866,91.0581
2885.9507,91.0366
2886.9150,91.0288
2887.8792,91.014
2888.8435,90.9766
2889.8076,90.9139
2890.7720,90.8377
2891.7361,90.7684
2892.7004,90.7215
2893.6646,90.694
2894.6289,90.6587
2895.5930,90.5757
2896.5574,90.415
2897.5215,90.1807
2898.4858,89.9181
2899.4500,89.6981
2900.4143,89.5852
2901.3784,89.6076
2902.3428,89.746
2903.3069,89.9464
2904.2712,90.1483
2905.2354,90.3096
2906.1997,90.4176
2907.1638,90.4832
2908.1282,90.5289
2909.0923,90.5775
2910.0566,90.6467
2911.0208,90.7468
2911.9851,90.8791
2912.9492,91.0346
2913.9136,91.1955
2914.8777,91.3406
2915.8420,91.4532
2916.8062,91.5274
2917.7705,91.5691
2918.7346,91.591
2919.6990,91.607
2920.6631,91.6271
2921.6274,91.6558
2922.5916,91.693
2923.5559,91.7354
2924.5200,91.7781
2925.4844,91.8173
2926.4485,91.851
2927.4128,91.8807
2928.3770,91.909
2929.3413,91.938
2930.3054,91.9663
2931.2698,91.99
2932.2339,92.0052
2933.1982,92.0104
2934.1624,92.0082
2935.1267,92.0031
2936.0908,91.9982
2937.0552,91.9929
2938.0193,91.9831
2938.9836,91.9646
2939.9478,91.9372
2940.9121,91.9063
2941.8762,91.8818
2942.8406,91.873
2943.8047,91.8832
2944.7690,91.9065
2945.7332,91.9295
2946.6975,91.9372
2947.6616,91.9186
2948.6260,91.8717
2949.5901,91.8023
2950.5544,91.7202
2951.5186,91.6335
2952.4829,91.5461
2953.4470,91.457
2954.4114,91.3633
2955.3755,91.2636
2956.3398,91.1593
2957.3040,91.054
2958.2683,90.951
2959.2324,90.8506
2960.1968,90.7485
2961.1609,90.6366
2962.1252,90.506
2963.0894,90.3513
2964.0537,90.173
2965.0178,89.9785
2965.9822,89.7795
2966.9463,89.589
2967.9106,89.4185
2968.8748,89.2774
2969.8391,89.1732
2970.8032,89.1112
2971.7676,89.0932
2972.7317,89.1155
2973.6960,89.1685
2974.6602,89.2388
2975.6245,89.3133
2976.5886,89.3827
2977.5530,89.444
2978.5171,89.4986
2979.4814,89.5492
2980.4456,89.5944
2981.4099,89.6248
2982.3740,89.6228
2983.3384,89.5707
2984.3025,89.4634
2985.2668,89.3227
2986.2310,89.201
2987.1953,89.1678
2988.1594,89.2818
2989.1238,89.5612
2990.0879,89.9698
2991.0522,90.43
2992.0164,90.8562
2992.9807,91.1907
2993.9448,91.4239
2994.9092,91.5876
2995.8733,91.731
2996.8376,91.8926
2997.8018,92.087
2998.7661,92.3079
2999.7302,92.5408
3000.6946,92.7758
3001.6587,93.0115
3002.6230,93.2523
3003.5872,93.5022
3004.5515,93.7613
3005.5156,94.0254
3006.4800,94.2877
3007.4441,94.5417
3008.4084,94.7839
3009.3726,95.0151
3010.3369,95.2406
3011.3010,95.4677
3012.2654,95.7022
3013.2295,95.9449
3014.1938,96.1909
3015.1580,96.4319
3016.1223,96.6607
3017.0864,96.8743
3018.0508,97.0745
3019.0149,97.2655
3019.9792,97.4505
3020.9434,97.631
3021.9077,97.8062
3022.8718,97.975
3023.8362,98.1365
3024.8003,98.2895
3025.7646,98.432
3026.7288,98.561
3027.6931,98.6744
3028.6572,98.7739
3029.6216,98.8652
3030.5857,98.9571
3031.5500,99.0575
3032.5142,99.1694
3033.4785,99.2899
3034.4426,99.4121
3035.4070,99.5289
3036.3711,99.6351
3037.3354,99.7253
3038.2996,99.8021
3039.2639,99.8662
3040.2280,99.9182
3041.1924,99.959
3042.1565,99.9903
3043.1208,100.014
3044.0850,100.033
3045.0493,100.049
3046.0134,100.065
3046.9778,100.082
3047.9419,100.099
3048.9063,100.114
3049.8704,100.121
3050.8347,100.117
3051.7988,100.101
3052.7632,100.079
3053.7273,100.059
3054.6917,100.049
3055.6558,100.052
3056.6201,100.069
3057.5842,100.09
3058.5486,100.107
3059.5127,100.111
3060.4771,100.097
3061.4412,100.066
3062.4055,100.024
3063.3696,99.9801
3064.3340,99.9452
3065.2981,99.9259
3066.2625,99.9225
3067.2266,99.9293
3068.1909,99.9379
3069.1550,99.9418
3070.1194,99.9393
3071.0835,99.9321
3072.0479,99.9224
3073.0120,99.9102
3073.9763,99.8929
3074.9404,99.8679
3075.9048,99.8352
3076.8689,99.7987
3077.8333,99.7654
3078.7974,99.7412
3079.7617,99.7286
3080.7258,99.7255
3081.6902,99.7266
3082.6543,99.7264
3083.6187,99.7218
3084.5828,99.7127
3085.5471,99.7014
3086.5112,99.6907
3087.4756,99.6816
3088.4397,99.672
3089.4041,99.6578
3090.3682,99.6349
3091.3325,99.6019
3092.2966,99.5614
3093.2610,99.5194
3094.2251,99.4819
3095.1895,99.452
3096.1536,99.4287
3097.1179,99.408
3098.0820,99.3863
3099.0464,99.3626
3100.0105,99.3391
3100.9749,99.3194
3101.9390,99.3059
3102.9033,99.2988
3103.8674,99.2962
3104.8318,99.2951
3105.7959,99.2923
3106.7603,99.2853
3107.7244,99.2721
3108.6887,99.2515
3109.6528,99.2232
3110.6172,99.1885
3111.5813,99.1496
3112.5457,99.1092
3113.5098,99.0701
3114.4741,99.0341
3115.4382,99.0021
3116.4026,98.9739
3117.3667,98.949
3118.3311,98.9269
3119.2952,98.9072
3120.2595,98.8898
3121.2236,98.8744
3122.1880,98.861
3123.1521,98.8495
3124.1165,98.8403
3125.0806,98.8332
3126.0449,98.8269
3127.0090,98.8183
3127.9734,98.8031
3128.9375,98.7777
3129.9019,98.7423
3130.8660,98.7014
3131.8303,98.6628
3132.7944,98.6341
3133.7588,98.6192
3134.7229,98.616
3135.6873,98.6178
3136.6514,98.6171
3137.6157,98.6085
3138.5798,98.5908
3139.5442,98.5657
3140.5083,98.5369
3141.4727,98.5077
3142.4368,98.4799
3143.4011,98.4539
3144.3652,98.4289
3145.3296,98.4038
3146.2937,98.3784
3147.2581,98.3534
3148.2222,98.3305
3149.1865,98.3105
3150.1506,98.2926
3151.1150,98.2739
3152.0791,98.2509
3153.0435,98.2215
3154.0076,98.187
3154.9719,98.1511
3155.9360,98.1182
3156.9004,98.0906
3157.8645,98.0672
3158.8289,98.0452
3159.7930,98.0213
3160.7573,97.9941
3161.7214,97.9645
3162.6858,97.934
3163.6499,97.9037
3164.6143,97.8737
3165.5784,97.8439
3166.5427,97.8148
3167.5068,97.7882
3168.4712,97.7653
3169.4353,97.8381
3170.3997,97.818
3171.3638,97.792
3172.3281,97.7562
3173.2922,97.71
3174.2566,97.6569
3175.2207,97.6035
3176.1851,97.5566
3177.1492,97.5207
3178.1135,97.4961
3179.0776,97.479
3180.0420,97.4639
3181.0061,97.4463
3181.9705,97.4252
3182.9346,97.402
3183.8989,97.3793
3184.8630,97.3581
3185.8274,97.3367
3186.7915,97.3119
3187.7559,97.2813
3188.7200,97.2455
3189.6843,97.2082
3190.6484,97.1742
3191.6128,97.1458
3192.5769,97.1213
3193.5413,97.0961
3194.5054,97.0657
3195.4697,97.0283
3196.4338,96.9863
3197.3982,96.9447
3198.3623,96.9085
3199.3267,96.8799
3200.2908,96.8582
3201.2551,96.8401
3202.2192,96.8216
3203.1836,96.7992
3204.1477,96.7709
3205.1121,96.7368
3206.0762,96.699
3207.0405,96.6605
3208.0046,96.6227
3208.9690,96.5852
3209.9331,96.5451
3210.8975,96.5001
3211.8616,96.4507
3212.8259,96.4016
3213.7900,96.3596
3214.7544,96.3302
3215.7185,96.3143
3216.6829,96.3076
3217.6470,96.3034
3218.6113,96.2955
3219.5754,96.2807
3220.5398,96.2584
3221.5039,96.2295
3222.4683,96.1948
3223.4324,96.1558
3224.3967,96.1146
3225.3608,96.0752
3226.3252,96.042
3227.2893,96.018
3228.2537,96.0033
3229.2178,95.9945
3230.1821,95.9864
3231.1462,95.9741
3232.1106,95.9548
3233.0747,95.9285
3234.0391,95.8974
3235.0032,95.8646
3235.9675,95.8328
3236.9316,95.8028
3237.8960,95.7738
3238.8601,95.744
3239.8245,95.7119
3240.7886,95.6776
3241.7529,95.6435
3242.7170,95.6131
3243.6814,95.5898
3244.6455,95.575
3245.6099,95.5674
3246.5740,95.5632
3247.5383,95.5575
3248.5024,95.5464
3249.4668,95.5278
3250.4309,95.5019
3251.3953,95.4705
3252.3594,95.4362
3253.3237,95.4018
3254.2878,95.3692
3255.2522,95.3396
3256.2163,95.3144
3257.1807,95.2952
3258.1448,95.2831
3259.1091,95.2769
3260.0732,95.2722
3261.0376,95.2627
3262.0017,95.2428
3262.9661,95.2106
3263.9302,95.1694
3264.8945,95.1258
3265.8586,95.0862
3266.8230,95.0541
3267.7871,95.0282
3268.7515,95.0047
3269.7156,94.9796
3270.6799,94.9516
3271.6440,94.9222
3272.6084,94.8946
3273.5725,94.8719
3274.5369,94.8557
3275.5010,94.8453
3276.4653,94.839
3277.4294,94.8346
3278.3938,94.8302
3279.3579,94.8249
3280.3223,94.818
3281.2864,94.8095
3282.2507,94.7989
3283.2148,94.7855
3284.1792,94.7685
3285.1433,94.7475
3286.1077,94.7224
3287.0718,94.6945
3288.0361,94.6657
3289.0002,94.6386
3289.9646,94.6162
3290.9287,94.6007
3291.8931,94.5928
3292.8572,94.5912
3293.8215,94.5928
3294.7856,94.5931
3295.7500,94.5882
3296.7141,94.5757
3297.6785,94.5561
3298.6426,94.5324
3299.6069,94.5092
3300.5710,94.4908
3301.5354,94.4787
3302.4995,94.471
3303.4639,94.4635
3304.4280,94.4523
3305.3923,94.4364
3306.3564,94.4188
3307.3208,94.4046
3308.2849,94.3978
3309.2493,94.3987
3310.2134,94.4034
3311.1777,94.4062
3312.1418,94.4034
3313.1062,94.3948
3314.0703,94.3835
3315.0347,94.3726
3315.9988,94.3634
3316.9631,94.3544
3317.9272,94.3435
3318.8916,94.3297
3319.8557,94.3147
3320.8201,94.3015
3321.7842,94.2919
3322.7485,94.2854
3323.7126,94.2793
3324.6770,94.2705
3325.6411,94.258
3326.6055,94.243
3327.5696,94.2282
3328.5339,94.2154
3329.4980,94.2048
3330.4624,94.1953
3331.4265,94.1856
3332.3909,94.1754
3333.3550,94.1651
3334.3193,94.1557
3335.2834,94.148
3336.2478,94.1421
3337.2119,94.1375
3338.1763,94.1343
3339.1404,94.1328
3340.1047,94.1338
3341.0688,94.1373
3342.0332,94.1425
3342.9973,94.1476
3343.9617,94.1508
3344.9258,94.1515
3345.8901,94.1509
3346.8542,94.1523
3347.8186,94.1591
3348.7827,94.1727
3349.7471,94.1915
3350.7112,94.2105
3351.6755,94.224
3352.6396,94.2282
3353.6040,94.2229
3354.5681,94.2122
3355.5325,94.202
3356.4966,94.1975
3357.4609,94.201
3358.4250,94.2111
3359.3894,94.2232
3360.3535,94.2318
3361.3179,94.2334
3362.2820,94.2277
3363.2463,94.2189
3364.2104,94.2138
3365.1748,94.2196
3366.1389,94.2405
3367.1033,94.2758
3368.0674,94.3199
3369.0317,94.3648
3369.9958,94.4025
3370.9602,94.4279
3371.9243,94.4396
3372.8887,94.44
3373.8528,94.4347
3374.8171,94.4301
3375.7813,94.4317
3376.7456,94.4417
3377.7097,94.4584
3378.6741,94.4774
3379.6382,94.494
3380.6025,94.5059
3381.5667,94.5136
3382.5310,94.52
3383.4951,94.5279
3384.4595,94.5383
3385.4236,94.5499
3386.3879,94.5605
3387.3521,94.569
3388.3164,94.5761
3389.2805,94.5842
3390.2449,94.5953
3391.2090,94.61
3392.1733,94.6273
3393.1375,94.6459
3394.1018,94.6658
3395.0659,94.6884
3396.0303,94.7149
3396.9944,94.7441
3397.9587,94.7715
3398.9229,94.7917
3399.8872,94.8027
3400.8513,94.808
3401.8157,94.8158
3402.7798,94.8341
3403.7441,94.8661
3404.7083,94.9082
3405.6726,94.9519
3406.6367,94.9887
3407.6011,95.0137
3408.5652,95.0274
3409.5295,95.0347
3410.4937,95.0417
3411.4580,95.0532
3412.4221,95.071
3413.3865,95.0931
3414.3506,95.1147
3415.3149,95.1306
3416.2791,95.1376
3417.2434,95.1381
3418.2075,95.1406
3419.1719,95.1563
3420.1360,95.1931
3421.1003,95.2493
3422.0645,95.3134
3423.0288,95.3702
3423.9929,95.4097
3424.9573,95.4312
3425.9214,95.443
3426.8857,95.4574
3427.8499,95.4839
3428.8142,95.5254
3429.7783,95.5775
3430.7427,95.6316
3431.7068,95.68
3432.6711,95.7196
3433.6353,95.7523
3434.5996,95.7826
3435.5637,95.8135
3436.5281,95.8444
3437.4922,95.8716
3438.4565,95.8899
3439.4207,95.8958
3440.3850,95.8893
3441.3491,95.8738
3442.3135,95.8555
3443.2776,95.8424
3444.2419,95.8437
3445.2061,95.8684
3446.1704,95.9221
3447.1345,96.0023
3448.0989,96.0968
3449.0630,96.1885
3450.0273,96.2633
3450.9915,96.3149
3451.9558,96.3445
3452.9199,96.3581
3453.8843,96.363
3454.8484,96.3656
3455.8127,96.3696
3456.7769,96.3766
3457.7412,96.3868
3458.7053,96.4008
3459.6697,96.4194
3460.6338,96.4434
3461.5981,96.472
3462.5623,96.5033
3463.5266,96.5348
3464.4907,96.5658
3465.4551,96.5978
3466.4192,96.6331
3467.3835,96.672
3468.3477,96.7111
3469.3120,96.7445
3470.2761,96.7683
3471.2405,96.7849
3472.2046,96.8032
3473.1689,96.8343
3474.1331,96.8827
3475.0974,96.9414
3476.0615,96.994
3477.0259,97.0244
3477.9900,97.0274
3478.9543,97.0121
3479.9185,96.9978
3480.8828,97.0027
3481.8469,97.0319
3482.8113,97.0751
3483.7754,97.1151
3484.7397,97.1413
3485.7039,97.1558
3486.6682,97.1703
3487.6323,97.1978
3488.5967,97.2432
3489.5608,97.3
3490.5251,97.3557
3491.4893,97.3991
3492.4536,97.4274
3493.4177,97.4453
3494.3821,97.4611
3495.3462,97.4787
3496.3105,97.4936
3497.2747,97.4941
3498.2390,97.4713
3499.2031,97.4274
3500.1675,97.3795
3501.1316,97.3564
3502.0959,97.3847
3503.0601,97.4684
3504.0244,97.5821
3504.9885,97.6879
3505.9529,97.761
3506.9170,97.7995
3507.8813,97.8183
3508.8455,97.837
3509.8098,97.8687
3510.7739,97.9125
3511.7383,97.9582
3512.7024,97.9978
3513.6667,98.0311
3514.6309,98.0636
3515.5952,98.0986
3516.5593,98.1331
3517.5237,98.1583
3518.4878,98.1652
3519.4521,98.1498
3520.4163,98.1148
3521.3806,98.0693
3522.3447,98.0248
3523.3091,97.9913
3524.2732,97.9747
3525.2375,97.9785
3526.2017,98.007
3527.1660,98.0645
3528.1301,98.1507
3529.0945,98.2554
3530.0586,98.3601
3531.0229,98.4479
3531.9871,98.5112
3532.9514,98.5529
3533.9155,98.5831
3534.8799,98.6143
3535.8440,98.6553
3536.8083,98.705
3537.7725,98.7513
3538.7368,98.7777
3539.7009,98.7735
3540.6653,98.7373
3541.6294,98.6767
3542.5938,98.6088
3543.5579,98.5605
3544.5222,98.5599
3545.4863,98.6154
3546.4507,98.703
3547.4148,98.7842
3548.3792,98.8374
3549.3433,98.8688
3550.3076,98.9
3551.2717,98.9519
3552.2361,99.0318
3553.2002,99.1273
3554.1646,99.2144
3555.1287,99.2744
3556.0930,99.303
3557.0571,99.3046
3558.0215,99.2842
3558.9856,99.2444
3559.9500,99.1876
3560.9141,99.1187
3561.8784,99.0443
3562.8425,98.9687
3563.8069,98.8944
3564.7710,98.8413
3565.7354,98.8675
3566.6995,99.0273
3567.6638,99.2757
3568.6279,99.4884
3569.5923,99.5941
3570.5564,99.6162
3571.5208,99.6113
3572.4849,99.6165
3573.4492,99.6384
3574.4133,99.6668
3575.3777,99.6905
3576.3418,99.705
3577.3062,99.7116
3578.2703,99.7131
3579.2346,99.7098
3580.1987,99.7009
3581.1631,99.688
3582.1272,99.677
3583.0916,99.6709
3584.0557,99.6639
3585.0200,99.6512
3585.9841,99.6523
3586.9485,99.7014
3587.9126,99.7833
3588.8770,99.826
3589.8411,99.7859
3590.8054,99.6855
3591.7695,99.5712
3592.7339,99.4751
3593.6980,99.4095
3594.6624,99.373
3595.6265,99.3539
3596.5908,99.3396
3597.5549,99.3323
3598.5193,99.3494
3599.4834,99.407
3600.4478,99.5012
3601.4119,99.6063
3602.3762,99.6958
3603.3403,99.7627
3604.3047,99.8176
3605.2688,99.8744
3606.2332,99.9443
3607.1973,100.032
3608.1616,100.123
3609.1257,100.182
3610.0901,100.172
3611.0542,100.08
3612.0186,99.9363
3612.9829,99.7903
3613.9470,99.6844
3614.9114,99.6399
3615.8755,99.6554
3616.8398,99.7153
3617.8040,99.8018
3618.7683,99.8917
3619.7324,99.9408
3620.6968,99.8969
3621.6609,99.7584
3622.6252,99.5945
3623.5894,99.4971
3624.5537,99.5195
3625.5178,99.6456
3626.4822,99.8073
3627.4463,99.9489
3628.4106,100.063
3629.3748,100.119
3630.3391,100.052
3631.3032,99.8797
3632.2676,99.6969
3633.2317,99.5818
3634.1960,99.5513
3635.1602,99.5733
3636.1245,99.6024
3637.0886,99.6079
3638.0530,99.5815
3639.0171,99.5268
3639.9814,99.4481
3640.9456,99.3507
3641.9099,99.2481
3642.8740,99.1646
3643.8384,99.1199
3644.8025,99.1027
3645.7668,99.0547
3646.7310,98.9159
3647.6953,98.7636
3648.6594,98.8266
3649.6238,99.1048
3650.5879,99.2932
3651.5522,99.2506
3652.5164,99.0805
3653.4807,98.9133
3654.4448,98.8019
3655.4092,98.7343
3656.3733,98.6772
3657.3376,98.6059
3658.3018,98.5201
3659.2661,98.4434
3660.2302,98.3998
3661.1946,98.3895
3662.1587,98.3905
3663.1230,98.384
3664.0872,98.3756
3665.0515,98.3857
3666.0156,98.4192
3666.9800,98.4455
3667.9441,98.4261
3668.9084,98.368
3669.8726,98.3212
3670.8369,98.3129
3671.8010,98.3309
3672.7654,98.3504
3673.7295,98.3494
3674.6938,98.3396
3675.6580,98.3671
3676.6223,98.427
3677.5864,98.4567
3678.5508,98.4356
3679.5149,98.3951
3680.4792,98.3593
3681.4434,98.3268
3682.4077,98.2944
3683.3718,98.2786
3684.3362,98.3052
3685.3003,98.3747
3686.2646,98.439
3687.2288,98.4285
3688.1931,98.3373
3689.1572,98.2566
3690.1216,98.2554
3691.0857,98.3002
3692.0500,98.3447
3693.0142,98.3874
3693.9785,98.4442
3694.9426,98.5233
3695.9070,98.625
3696.8711,98.7493
3697.8354,98.8955
3698.7996,99.0569
3699.7639,99.2177
3700.7280,99.3571
3701.6924,99.4539
3702.6565,99.4932
3703.6208,99.4794
3704.5850,99.4426
3705.5493,99.4224
3706.5134,99.4392
3707.4778,99.4817
3708.4419,99.5302
3709.4063,99.6092
3710.3704,99.7979
3711.3347,100.109
3712.2988,100.405
3713.2632,100.545
3714.2273,100.522
3715.1917,100.414
3716.1558,100.291
3717.1201,100.182
3718.0842,100.076
3719.0486,99.9548
3720.0127,99.815
3720.9771,99.672
3721.9412,99.5529
3722.9055,99.4822
3723.8696,99.4719
3724.8340,99.5133
3725.7981,99.5794
3726.7625,99.6433
3727.7266,99.6988
3728.6909,99.7551
3729.6550,99.8134
3730.6194,99.8481
3731.5835,99.815
3732.5479,99.6979
3733.5120,99.5696
3734.4763,99.5674
3735.4404,99.7193
3736.4048,99.8744
3737.3689,99.9097
3738.3333,99.874
3739.2974,99.9087
3740.2617,100.121
3741.2258,100.513
3742.1902,100.964
3743.1543,101.275
3744.1187,101.289
3745.0828,101.005
3746.0471,100.569
3747.0112,100.17
3747.9756,99.919
3748.9397,99.8633
3749.9041,100.012
3750.8682,100.293
3751.8325,100.507
3752.7966,100.498
3753.7610,100.313
3754.7251,100.095
3755.6895,99.9451
3756.6536,99.8938
3757.6179,99.928
3758.5820,100.016
3759.5464,100.112
3760.5105,100.174
3761.4749,100.192
3762.4390,100.183
3763.4033,100.169
3764.3674,100.163
3765.3318,100.168
3766.2959,100.185
3767.2603,100.215
3768.2244,100.258
3769.1887,100.308
3770.1528,100.35
3771.1172,100.36
3772.0813,100.329
3773.0457,100.272
3774.0098,100.218
3774.9741,100.189
3775.9382,100.184
3776.9026,100.191
3777.8667,100.2
3778.8311,100.205
3779.7952,100.192
3780.7595,100.149
3781.7236,100.076
3782.6880,99.9938
3783.6521,99.9335
3784.6165,99.919
3785.5806,99.956
3786.5449,100.028
3787.5090,100.105
3788.4734,100.163
3789.4375,100.197
3790.4019,100.215
3791.3660,100.224
3792.3303,100.219
3793.2944,100.183
3794.2588,100.102
3795.2229,99.9871
3796.1873,99.8728
3797.1514,99.7969
3798.1157,99.7731
3799.0798,99.7861
3800.0442,99.811
3801.0083,99.8332
3801.9727,99.8471
3802.9368,99.8582
3803.9011,99.8928
3804.8652,99.9805
3805.8296,100.119
3806.7937,100.256
3807.7581,100.319
3808.7222,100.271
3809.6865,100.16
3810.6506,100.074
3811.6150,100.077
3812.5791,100.153
3813.5435,100.221
3814.5076,100.199
3815.4719,100.067
3816.4360,99.8801
3817.4004,99.7168
3818.3645,99.6324
3819.3289,99.6449
3820.2930,99.7302
3821.2573,99.8186
3822.2214,99.8317
3823.1858,99.7539
3824.1499,99.6438
3825.1143,99.5767
3826.0784,99.5905
3827.0427,99.6733
3828.0068,99.7794
3828.9712,99.8601
3829.9353,99.8889
3830.8997,99.8702
3831.8638,99.8301
3832.8281,99.7959
3833.7922,99.7765
3834.7566,99.7538
3835.7207,99.6955
3836.6851,99.5875
3837.6492,99.4602
3838.6135,99.3704
3839.5776,99.3535
3840.5420,99.4076
3841.5061,99.5128
3842.4705,99.6391
3843.4346,99.7429
3844.3989,99.7789
3845.3630,99.7303
3846.3274,99.6313
3847.2915,99.5576
3848.2559,99.588
3849.2200,99.7599
3850.1843,100.037
3851.1484,100.324
3852.1128,100.547
3853.0769,100.711
3854.0413,100.749
3855.0054,100.552
3855.9697,100.193
3856.9338,99.8501
3857.8982,99.6398
3858.8623,99.5747
3859.8267,99.5914
3860.7908,99.6029
3861.7551,99.5599
3862.7192,99.4874
3863.6836,99.4523
3864.6477,99.492
3865.6121,99.5889
3866.5762,99.6972
3867.5405,99.7701
3868.5046,99.7794
3869.4690,99.734
3870.4331,99.6794
3871.3975,99.6606
3872.3616,99.6862
3873.3259,99.7341
3874.2900,99.7824
3875.2544,99.8236
3876.2185,99.8546
3877.1829,99.8646
3878.1470,99.8365
3879.1113,99.7653
3880.0754,99.6764
3881.0398,99.6168
3882.0039,99.6258
3882.9683,99.7112
3883.9324,99.8444
3884.8967,99.9708
3885.8608,100.037
3886.8252,100.019
3887.7893,99.9397
3888.7537,99.8376
3889.7178,99.7475
3890.6821,99.6906
3891.6462,99.6721
3892.6106,99.6746
3893.5747,99.6742
3894.5391,99.6721
3895.5032,99.6861
3896.4675,99.719
3897.4316,99.748
3898.3960,99.7454
3899.3601,99.7048
3900.3245,99.6443
3901.2886,99.5908
3902.2529,99.5703
3903.2170,99.5986
3904.1814,99.6677
3905.1455,99.7473
3906.1099,99.8121
3907.0740,99.8589
3908.0383,99.8957
3909.0024,99.9243
3909.9668,99.9375
3910.9309,99.9271
3911.8953,99.8941
3912.8594,99.8491
3913.8237,99.8064
3914.7878,99.7773
3915.7522,99.7682
3916.7163,99.7779
3917.6807,99.7915
3918.6448,99.7838
3919.6091,99.7378
3920.5732,99.6599
3921.5376,99.5751
3922.5017,99.5124
3923.4661,99.4913
3924.4302,99.5098
3925.3945,99.5432
3926.3586,99.5614
3927.3230,99.5489
3928.2871,99.5111
3929.2515,99.4686
3930.2156,99.4511
3931.1799,99.4853
3932.1440,99.5742
3933.1084,99.6904
3934.0725,99.7961
3935.0369,99.8678
3936.0010,99.9003
3936.9653,99.8974
3937.9294,99.8642
3938.8938,99.8058
3939.8579,99.7321
3940.8223,99.6609
3941.7864,99.6116
3942.7507,99.5933
3943.7148,99.5973
3944.6792,99.6047
3945.6433,99.6003
3946.6077,99.5809
3947.5718,99.5556
3948.5361,99.5406
3949.5002,99.5476
3950.4646,99.5755
3951.4287,99.6129
3952.3931,99.6483
3953.3572,99.6757
3954.3215,99.694
3955.2856,99.7037
3956.2500,99.7053
3957.2141,99.6993
3958.1785,99.6881
3959.1426,99.6776
3960.1069,99.6761
3961.0710,99.6907
3962.0354,99.7214
3962.9995,99.76
3963.9639,99.7938
3964.9280,99.812
3965.8923,99.8107
3966.8564,99.7928
3967.8208,99.7646
3968.7849,99.7321
3969.7493,99.6994
3970.7134,99.6693
3971.6777,99.646
3972.6418,99.6356
3973.6062,99.6435
3974.5703,99.6706
3975.5347,99.7103
3976.4988,99.7505
3977.4631,99.7789
3978.4272,99.7893
3979.3916,99.783
3980.3557,99.7682
3981.3201,99.7551
3982.2842,99.7506
3983.2485,99.7553
3984.2126,99.7641
3985.1770,99.7701
3986.1411,99.7685
3987.1055,99.7582
3988.0696,99.7414
3989.0339,99.7207
3989.9980,99.6988
3990.9624,99.6778
3991.9265,99.6613
3992.8909,99.6534
3993.8550,99.6574
3994.8193,99.6723
3995.7834,99.692
3996.7478,99.7086
3997.7119,99.7172
3998.6763,99.7193
3999.6404,99.7217
4000.6047,99.5392

##### Extended Information
[Comments]
Sample name
Comment
User
Division
Company,HANKYONG

[Detailed Information]
Creation date,4/24/2024 2:14 PM

Data array type,Linear data array
Horizontal axis,Wavenumber [cm-1]
Vertical axis,%T
Start,649.893 cm-1
End,4000.6 cm-1
Data interval,0.964233 cm-1
Data points,3476    

[Measurement Information]
Model Name,FT/IR-4700typeA
Serial Number,D056761788

Accessory,ATR PRO ONE
Accessory S/N,C174761809
Incident angle,45 deg

Measurement Date,4/24/2024 2:13 PM

Light Source,Standard
Detector,TGS
Accumulation,32
Resolution,4 cm-1
Zero Filling,On
Apodization,Cosine
Gain,Auto (4)
Aperture,Auto (7.1 mm)
Scanning Speed,Auto (2 mm/sec)
Filter,Auto (30000 Hz)

