TITLE,
DATA TYPE,INFRARED SPECTRUM
ORIGIN,JASCO
OWNER,
DATE,24/04/24
TIME,15:44:09
SPECTROMETER/DATA SYSTEM,
LOCALE,1033
RESOLUTION,
DELTAX,0.964233
XUNITS,1/CM
YUNITS,TRANSMITTANCE
FIRSTX,  649.8934
LASTX, 4000.6047
NPOINTS,    3476
FIRSTY,    95.86195
MAXY,   101.21146
MINY,    68.01377
XYDATA
649.8934,95.862
650.8576,95.8829
651.8218,95.9109
652.7861,95.9362
653.7503,95.9328
654.7145,95.8806
655.6788,95.7759
656.6430,95.6329
657.6072,95.4741
658.5715,95.3202
659.5357,95.1875
660.4999,95.0896
661.4642,95.0394
662.4284,95.0476
663.3926,95.1234
664.3569,95.2788
665.3211,95.5323
666.2853,95.8966
667.2496,96.3299
668.2138,96.6744
669.1780,96.7661
670.1423,96.6637
671.1065,96.5538
672.0707,96.55
673.0350,96.6796
673.9992,96.9252
674.9634,97.2408
675.9277,97.5621
676.8919,97.8323
677.8561,98.0304
678.8204,98.174
679.7846,98.2966
680.7488,98.4234
681.7131,98.562
682.6773,98.7063
683.6415,98.8446
684.6058,98.9662
685.5700,99.0621
686.5342,99.1243
687.4985,99.1465
688.4627,99.1275
689.4269,99.0754
690.3912,99.0075
691.3554,98.9471
692.3196,98.9164
693.2839,98.9266
694.2481,98.9673
695.2123,99.0071
696.1766,99.0146
697.1408,98.9803
698.1050,98.9213
699.0693,98.8676
700.0335,98.8449
700.9977,98.8609
701.9620,98.9044
702.9262,98.9549
703.8904,98.9945
704.8547,99.0166
705.8189,99.0249
706.7831,99.0279
707.7474,99.0331
708.7116,99.0446
709.6758,99.0637
710.6401,99.0898
711.6043,99.1208
712.5685,99.1531
713.5328,99.1843
714.4970,99.2159
715.4612,99.2811
716.4255,99.337
717.3897,99.4185
718.3539,99.5222
719.3182,99.6316
720.2824,99.7239
721.2466,99.7823
722.2109,99.8059
723.1751,99.8077
724.1393,99.8053
725.1036,99.8109
726.0678,99.8281
727.0320,99.8544
727.9963,99.8872
728.9605,99.9262
729.9247,99.9738
730.8890,100.031
731.8532,100.095
732.8174,100.158
733.7817,100.212
734.7459,100.25
735.7101,100.269
736.6744,100.27
737.6386,100.258
738.6028,100.238
739.5671,100.215
740.5313,100.192
741.4955,100.172
742.4598,100.156
743.4240,100.145
744.3882,100.142
745.3525,100.145
746.3167,100.152
747.2809,100.158
748.2452,100.157
749.2094,100.148
750.1736,100.136
751.1379,100.128
752.1021,100.127
753.0663,100.133
754.0306,100.136
754.9948,100.128
755.9590,100.104
756.9233,100.069
757.8875,100.031
758.8517,99.9952
759.8160,99.9655
760.7802,99.9452
761.7444,99.9402
762.7087,99.9341
763.6729,99.9302
764.6371,99.9332
765.6014,99.945
766.5656,99.9632
767.5298,99.9822
768.4941,99.9967
769.4583,100.005
770.4225,100.007
771.3868,100.007
772.3510,100.006
773.3152,100.009
774.2795,100.016
775.2437,100.03
776.2079,100.049
777.1722,100.072
778.1364,100.094
779.1006,100.11
780.0649,100.116
781.0291,100.113
781.9933,100.103
782.9576,100.088
783.9218,100.071
784.8860,100.051
785.8503,100.029
786.8145,100.006
787.7787,99.9819
788.7430,99.9569
789.7072,99.9286
790.6714,99.8929
791.6357,99.8451
792.5999,99.7822
793.5641,99.7041
794.5284,99.614
795.4926,99.5183
796.4568,99.4254
797.4211,99.3421
798.3853,99.2711
799.3495,99.2086
800.3138,99.1451
801.2780,99.0699
802.2422,98.977
803.2065,98.8697
804.1707,98.7602
805.1349,98.6652
806.0992,98.599
807.0634,98.5671
808.0276,98.5659
808.9919,98.5857
809.9561,98.617
810.9203,98.6555
811.8846,98.7031
812.8488,98.7647
813.8130,98.8433
814.7773,98.9365
815.7415,99.0365
816.7057,99.1342
817.6700,99.2228
818.6342,99.301
819.5984,99.3712
820.5627,99.4369
821.5269,99.4997
822.4911,99.5592
823.4554,99.6139
824.4196,99.6628
825.3839,99.7049
826.3481,99.7391
827.3123,99.7629
828.2766,99.7737
829.2408,99.7699
830.2050,99.7525
831.1693,99.7258
832.1335,99.6954
833.0977,99.6835
834.0620,99.6797
835.0262,99.6833
835.9904,99.6923
836.9547,99.7027
837.9189,99.7096
838.8831,99.7097
839.8474,99.7024
840.8116,99.6889
841.7758,99.6696
842.7401,99.6421
843.7043,99.6003
844.6685,99.537
845.6328,99.4483
846.5970,99.3362
847.5612,99.2091
848.5255,99.0783
849.4897,98.9542
850.4539,98.8421
851.4182,98.7411
852.3824,98.6458
853.3466,98.5489
854.3109,98.4449
855.2751,98.3329
856.2393,98.2168
857.2036,98.1037
858.1678,97.9998
859.1320,97.9082
860.0963,97.8272
861.0605,97.7526
862.0247,97.6799
862.9890,97.6067
863.9532,97.532
864.9174,97.4555
865.8817,97.3771
866.8459,97.297
867.8101,97.2165
868.7744,97.1378
869.7386,97.0618
870.7028,96.9867
871.6671,96.9086
872.6313,96.8246
873.5955,96.7354
874.5598,96.6457
875.5240,96.5611
876.4882,96.4836
877.4525,96.4097
878.4167,96.3323
879.3809,96.2463
880.3452,96.1516
881.3094,96.0529
882.2736,95.9551
883.2379,95.8582
884.2021,95.7565
885.1663,95.6428
886.1306,95.5141
887.0948,95.3749
888.0590,95.2346
889.0233,95.102
889.9875,94.9796
890.9517,94.863
891.9160,94.7455
892.8802,94.6258
893.8444,94.5119
894.8087,94.4192
895.7729,94.3641
896.7371,94.3554
897.7014,94.3909
898.6656,94.4589
899.6298,94.5443
900.5941,94.6348
901.5583,94.7242
902.5225,94.8117
903.4868,94.8981
904.4510,94.9837
905.4152,95.0667
906.3795,95.1439
907.3437,95.2112
908.3079,95.2643
909.2722,95.2988
910.2364,95.3124
911.2006,95.3058
912.1649,95.2833
913.1291,95.2506
914.0933,95.2114
915.0576,95.1654
916.0218,95.1084
916.9860,95.0359
917.9503,94.9464
918.9145,94.8435
919.8787,94.7331
920.8430,94.6196
921.8072,94.503
922.7714,94.3801
923.7357,94.2463
924.6999,94.0999
925.6641,93.942
926.6284,93.7759
927.5926,93.6047
928.5568,93.4301
929.5211,93.2528
930.4853,93.0726
931.4495,92.8885
932.4138,92.6988
933.3780,92.5016
934.3422,92.2962
935.3065,92.0846
936.2707,91.8709
937.2349,91.6595
938.1992,91.4518
939.1634,91.2461
940.1276,91.0388
941.0919,90.8286
942.0561,90.6178
943.0203,90.4114
943.9846,90.2119
944.9488,90.0163
945.9130,89.8155
946.8773,89.599
947.8415,89.3608
948.8057,89.103
949.7700,88.8348
950.7342,88.5672
951.6984,88.3068
952.6627,88.0535
953.6269,87.8015
954.5911,87.5435
955.5554,87.2751
956.5196,86.997
957.4838,86.7141
958.4481,86.4329
959.4123,86.1585
960.3765,85.8923
961.3408,85.6319
962.3050,85.3723
963.2692,85.1084
964.2335,84.8376
965.1977,84.5604
966.1619,84.2795
967.1262,83.9965
968.0904,83.7096
969.0546,83.4123
970.0189,83.0962
970.9831,82.7545
971.9473,82.3848
972.9116,81.9896
973.8758,81.5727
974.8400,81.1357
975.8043,80.6764
976.7685,80.1908
977.7327,79.678
978.6970,79.1439
979.6612,78.6012
980.6254,78.0653
981.5897,77.5491
982.5539,77.0598
983.5181,76.5991
984.4824,76.1668
985.4466,75.7646
986.4108,75.3971
987.3751,75.0698
988.3393,74.7856
989.3035,74.5426
990.2678,74.3334
991.2320,74.1478
992.1962,73.9747
993.1605,73.8051
994.1247,73.6326
995.0889,73.4535
996.0532,73.2663
997.0174,73.0711
997.9816,72.8698
998.9459,72.6653
999.9101,72.4608
1000.8743,72.2586
1001.8386,72.0588
1002.8028,71.8595
1003.7670,71.6579
1004.7313,71.4526
1005.6955,71.2447
1006.6597,71.0366
1007.6240,70.8296
1008.5882,70.6214
1009.5524,70.4064
1010.5167,70.1787
1011.4809,69.9362
1012.4451,69.6836
1013.4094,69.4302
1014.3736,69.1869
1015.3378,68.9609
1016.3021,68.7548
1017.2663,68.5681
1018.2305,68.4005
1019.1948,68.2548
1020.1590,68.137
1021.1232,68.0546
1022.0875,68.0138
1023.0517,68.0171
1024.0160,68.0622
1024.9802,68.1415
1025.9445,68.243
1026.9087,68.3549
1027.8729,68.4708
1028.8372,68.5945
1029.8014,68.7407
1030.7656,68.9291
1031.7299,69.1758
1032.6941,69.486
1033.6583,69.8513
1034.6226,70.2531
1035.5868,70.6684
1036.5510,71.0775
1037.5153,71.4665
1038.4795,71.8278
1039.4437,72.1569
1040.4080,72.4496
1041.3722,72.7017
1042.3364,72.9095
1043.3007,73.0721
1044.2649,73.1931
1045.2291,73.2809
1046.1934,73.348
1047.1576,73.4075
1048.1218,73.4704
1049.0861,73.5445
1050.0503,73.6352
1051.0145,73.7486
1051.9788,73.8926
1052.9430,74.0764
1053.9072,74.3062
1054.8715,74.5811
1055.8357,74.892
1056.7999,75.2252
1057.7642,75.5703
1058.7284,75.9273
1059.6926,76.3087
1060.6569,76.7338
1061.6211,77.2177
1062.5853,77.7615
1063.5496,78.3472
1064.5138,78.9413
1065.4780,79.506
1066.4423,80.014
1067.4065,80.4594
1068.3707,80.8567
1069.3350,81.2309
1070.2992,81.6045
1071.2634,81.99
1072.2277,82.3878
1073.1919,82.7904
1074.1561,83.1877
1075.1204,83.5711
1076.0846,83.9352
1077.0488,84.2762
1078.0131,84.591
1078.9773,84.8759
1079.9415,85.1271
1080.9058,85.3425
1081.8700,85.5232
1082.8342,85.6734
1083.7985,85.7998
1084.7627,85.9091
1085.7269,86.0055
1086.6912,86.0905
1087.6554,86.1639
1088.6196,86.2261
1089.5839,86.28
1090.5481,86.3306
1091.5123,86.3832
1092.4766,86.4418
1093.4408,86.508
1094.4050,86.5821
1095.3693,86.6641
1096.3335,86.7532
1097.2977,86.8471
1098.2620,86.9416
1099.2262,87.0315
1100.1904,87.1135
1101.1547,87.1888
1102.1189,87.263
1103.0831,87.3438
1104.0474,87.4378
1105.0116,87.5487
1105.9758,87.6779
1106.9401,87.8268
1107.9043,87.9978
1108.8685,88.1944
1109.8328,88.4185
1110.7970,88.6692
1111.7612,88.9419
1112.7255,89.2302
1113.6897,89.5275
1114.6539,89.8274
1115.6182,90.124
1116.5824,90.4102
1117.5466,90.6781
1118.5109,90.9204
1119.4751,91.1324
1120.4393,91.3145
1121.4036,91.4727
1122.3678,91.6173
1123.3320,91.7601
1124.2963,91.9104
1125.2605,92.0722
1126.2247,92.2436
1127.1890,92.4183
1128.1532,92.5885
1129.1174,92.7485
1130.0817,92.895
1131.0459,93.0272
1132.0101,93.1445
1132.9744,93.2447
1133.9386,93.3243
1134.9028,93.3802
1135.8671,93.4115
1136.8313,93.4206
1137.7955,93.4128
1138.7598,93.3938
1139.7240,93.3683
1140.6882,93.3391
1141.6525,93.3069
1142.6167,93.2722
1143.5809,93.2355
1144.5452,93.1979
1145.5094,93.1599
1146.4736,93.1209
1147.4379,93.0782
1148.4021,93.0283
1149.3663,92.9679
1150.3306,92.897
1151.2948,92.8195
1152.2590,92.7429
1153.2233,92.6763
1154.1875,92.6283
1155.1517,92.6055
1156.1160,92.6128
1157.0802,92.654
1158.0444,92.7329
1159.0087,92.8538
1159.9729,93.0209
1160.9371,93.2374
1161.9014,93.505
1162.8656,93.8235
1163.8298,94.1898
1164.7941,94.5982
1165.7583,95.0395
1166.7225,95.5023
1167.6868,95.9736
1168.6510,96.441
1169.6152,96.8931
1170.5795,97.321
1171.5437,97.7176
1172.5079,98.0784
1173.4722,98.4009
1174.4364,98.6852
1175.4006,98.9337
1176.3649,99.1496
1177.3291,99.3356
1178.2933,99.4926
1179.2576,99.62
1180.2218,99.7164
1181.1860,99.7811
1182.1503,99.8153
1183.1145,99.8224
1184.0787,99.8161
1185.0430,99.793
1186.0072,99.7563
1186.9714,99.7069
1187.9357,99.6429
1188.8999,99.5613
1189.8641,99.4598
1190.8284,99.3382
1191.7926,99.1991
1192.7568,99.0456
1193.7211,98.881
1194.6853,98.7067
1195.6495,98.5235
1196.6138,98.3322
1197.5780,98.1354
1198.5422,97.9365
1199.5065,97.7092
1200.4707,97.5188
1201.4349,97.333
1202.3992,97.1525
1203.3634,96.9786
1204.3276,96.8144
1205.2919,96.6628
1206.2561,96.5253
1207.2203,96.4008
1208.1846,96.2862
1209.1488,96.1775
1210.1130,96.0719
1211.0773,95.9683
1212.0415,95.8673
1213.0057,95.7698
1213.9700,95.6761
1214.9342,95.585
1215.8984,95.4944
1216.8627,95.4021
1217.8269,95.3071
1218.7911,95.2104
1219.7554,95.114
1220.7196,95.0201
1221.6838,94.9296
1222.6481,94.8418
1223.6123,94.7554
1224.5765,94.6698
1225.5408,94.5863
1226.5050,94.5073
1227.4692,94.4357
1228.4335,94.3733
1229.3977,94.32
1230.3619,94.2744
1231.3262,94.2344
1232.2904,94.1981
1233.2546,94.164
1234.2189,94.1313
1235.1831,94.1006
1236.1473,94.0734
1237.1116,94.0514
1238.0758,94.0344
1239.0400,94.0194
1240.0043,93.9998
1240.9685,93.9678
1241.9327,93.9187
1242.8970,93.8536
1243.8612,93.7797
1244.8254,93.7067
1245.7897,93.6417
1246.7539,93.5856
1247.7181,93.5326
1248.6824,93.4739
1249.6466,93.4022
1250.6108,93.3148
1251.5751,93.2144
1252.5393,93.106
1253.5035,92.9948
1254.4678,92.8843
1255.4320,92.7766
1256.3962,92.6736
1257.3605,92.5778
1258.3247,92.4923
1259.2889,92.4203
1260.2532,92.3635
1261.2174,92.3226
1262.1816,92.2974
1263.1459,92.2877
1264.1101,92.2938
1265.0743,92.3166
1266.0386,92.3576
1267.0028,92.419
1267.9670,92.5037
1268.9313,92.6141
1269.8955,92.7514
1270.8597,92.914
1271.8240,93.0972
1272.7882,93.2947
1273.7524,93.5001
1274.7167,93.7087
1275.6809,93.9175
1276.6451,94.1249
1277.6094,94.3299
1278.5736,94.5315
1279.5378,94.7296
1280.5021,94.9243
1281.4663,95.1158
1282.4305,95.3038
1283.3948,95.4865
1284.3590,95.6613
1285.3232,95.8247
1286.2875,95.973
1287.2517,96.1032
1288.2159,96.2133
1289.1802,96.3033
1290.1444,96.3746
1291.1086,96.4297
1292.0729,96.4708
1293.0371,96.4992
1294.0013,96.5155
1294.9656,96.5199
1295.9298,96.5124
1296.8940,96.493
1297.8583,96.4613
1298.8225,96.4165
1299.7867,96.3578
1300.7510,96.2862
1301.7152,96.2046
1302.6794,96.1169
1303.6437,96.0265
1304.6079,95.935
1305.5721,95.8422
1306.5364,95.7472
1307.5006,95.6499
1308.4648,95.5522
1309.4291,95.4569
1310.3933,95.367
1311.3575,95.2851
1312.3218,95.213
1313.2860,95.1526
1314.2502,95.106
1315.2145,95.0757
1316.1787,95.0634
1317.1429,95.0697
1318.1072,95.0924
1319.0714,95.1273
1320.0356,95.1694
1320.9999,95.2144
1321.9641,95.2597
1322.9283,95.3034
1323.8926,95.343
1324.8568,95.3749
1325.8210,95.3957
1326.7853,95.4039
1327.7495,95.4011
1328.7137,95.3918
1329.6780,95.3814
1330.6422,95.3737
1331.6064,95.3704
1332.5707,95.371
1333.5349,95.3758
1334.4991,95.3874
1335.4634,95.4116
1336.4276,95.4552
1337.3918,95.521
1338.3561,95.6022
1339.3203,95.683
1340.2845,95.7496
1341.2488,95.7991
1342.2130,95.8378
1343.1772,95.8725
1344.1415,95.9064
1345.1057,95.9383
1346.0699,95.9634
1347.0342,95.9755
1347.9984,95.969
1348.9626,95.9425
1349.9269,95.8987
1350.8911,95.8432
1351.8553,95.7821
1352.8196,95.7194
1353.7838,95.656
1354.7480,95.5894
1355.7123,95.5163
1356.6765,95.4353
1357.6407,95.3482
1358.6050,95.2603
1359.5692,95.1792
1360.5334,95.1105
1361.4977,95.0544
1362.4619,95.0047
1363.4261,94.9564
1364.3904,94.9104
1365.3546,94.8707
1366.3188,94.84
1367.2831,94.8202
1368.2473,94.8131
1369.2115,94.8214
1370.1758,94.8501
1371.1400,94.9074
1372.1042,95.0025
1373.0685,95.1381
1374.0327,95.3026
1374.9969,95.4719
1375.9612,95.6267
1376.9254,95.7653
1377.8896,95.8997
1378.8539,96.0433
1379.8181,96.2002
1380.7823,96.362
1381.7466,96.5133
1382.7108,96.6434
1383.6750,96.7542
1384.6393,96.8597
1385.6035,96.976
1386.5677,97.1087
1387.5320,97.248
1388.4962,97.3808
1389.4604,97.5019
1390.4247,97.6128
1391.3889,97.7159
1392.3531,97.8116
1393.3174,97.8932
1394.2816,97.9455
1395.2458,97.954
1396.2101,97.9203
1397.1743,97.8643
1398.1385,97.809
1399.1028,97.7667
1400.0670,97.7376
1401.0313,97.7165
1401.9955,97.6974
1402.9597,97.6748
1403.9240,97.6418
1404.8882,97.5896
1405.8524,97.512
1406.8167,97.4106
1407.7809,97.2919
1408.7451,97.1609
1409.7094,97.0189
1410.6736,96.8666
1411.6378,96.7066
1412.6021,96.5446
1413.5663,96.3852
1414.5305,96.2306
1415.4948,96.0829
1416.4590,95.9467
1417.4232,95.8244
1418.3875,95.7128
1419.3517,95.6141
1420.3159,95.5428
1421.2802,95.5099
1422.2444,95.5123
1423.2086,95.5385
1424.1729,95.5772
1425.1371,95.6209
1426.1013,95.6693
1427.0656,95.73
1428.0298,95.8145
1428.9940,95.927
1429.9583,96.0554
1430.9225,96.1758
1431.8867,96.2698
1432.8510,96.3388
1433.8152,96.4053
1434.7794,96.5007
1435.7437,96.6389
1436.7079,96.7937
1437.6721,96.9211
1438.6364,97.0018
1439.6006,97.0411
1440.5648,97.0465
1441.5291,97.0221
1442.4933,96.9725
1443.4575,96.9046
1444.4218,96.8264
1445.3860,96.7445
1446.3502,96.6639
1447.3145,96.5893
1448.2787,96.5263
1449.2429,96.4808
1450.2072,96.4536
1451.1714,96.4361
1452.1356,96.417
1453.0999,96.3957
1454.0641,96.3983
1455.0283,96.4785
1455.9926,96.6696
1456.9568,96.8865
1457.9210,96.9898
1458.8853,96.9914
1459.8495,96.9752
1460.8137,96.9704
1461.7780,96.9828
1462.7422,97.0314
1463.7064,97.1426
1464.6707,97.3158
1465.6349,97.5099
1466.5991,97.6778
1467.5634,97.8014
1468.5276,97.8922
1469.4918,97.9839
1470.4561,98.1288
1471.4203,98.3754
1472.3845,98.711
1473.3488,99.0354
1474.3130,99.2611
1475.2772,99.4002
1476.2415,99.5038
1477.2057,99.5992
1478.1699,99.6906
1479.1342,99.7751
1480.0984,99.8484
1481.0626,99.9061
1482.0269,99.9442
1482.9911,99.9602
1483.9553,99.9451
1484.9196,99.897
1485.8838,99.8525
1486.8480,99.8273
1487.8123,99.8177
1488.7765,99.7825
1489.7407,99.68
1490.7050,99.5246
1491.6692,99.3578
1492.6334,99.1943
1493.5977,99.027
1494.5619,98.8489
1495.5261,98.657
1496.4904,98.4414
1497.4546,98.1867
1498.4188,97.8987
1499.3831,97.608
1500.3473,97.3319
1501.3115,97.0603
1502.2758,96.7796
1503.2400,96.4971
1504.2042,96.2566
1505.1685,96.1345
1506.1327,96.1698
1507.0969,96.241
1508.0612,96.2082
1509.0254,96.1454
1509.9896,96.1382
1510.9539,96.184
1511.9181,96.2659
1512.8823,96.3904
1513.8466,96.5807
1514.8108,96.8526
1515.7750,97.1902
1516.7393,97.5477
1517.7035,97.8837
1518.6677,98.1948
1519.6320,98.5107
1520.5962,98.8509
1521.5604,99.1884
1522.5247,99.47
1523.4889,99.6664
1524.4531,99.7882
1525.4174,99.8632
1526.3816,99.9134
1527.3458,99.9462
1528.3101,99.9595
1529.2743,99.9524
1530.2385,99.9341
1531.2028,99.923
1532.1670,99.9317
1533.1312,99.9479
1534.0955,99.941
1535.0597,99.8908
1536.0239,99.8019
1536.9882,99.7062
1537.9524,99.6715
1538.9166,99.7919
1539.8809,100.082
1540.8451,100.354
1541.8093,100.35
1542.7736,100.18
1543.7378,100.012
1544.7020,99.8923
1545.6663,99.811
1546.6305,99.7536
1547.5947,99.7106
1548.5590,99.6766
1549.5232,99.6487
1550.4874,99.625
1551.4517,99.6017
1552.4159,99.5724
1553.3801,99.5306
1554.3444,99.4775
1555.3086,99.4348
1556.2728,99.4534
1557.2371,99.5739
1558.2013,99.6968
1559.1655,99.6409
1560.1298,99.4898
1561.0940,99.406
1562.0582,99.3906
1563.0225,99.3866
1563.9867,99.3596
1564.9509,99.3064
1565.9152,99.2416
1566.8794,99.1812
1567.8436,99.1263
1568.8079,99.0592
1569.7721,98.9649
1570.7363,98.8512
1571.7006,98.7337
1572.6648,98.6206
1573.6290,98.5167
1574.5933,98.4266
1575.5575,98.3413
1576.5217,98.2372
1577.4860,98.1115
1578.4502,97.9867
1579.4144,97.8709
1580.3787,97.753
1581.3429,97.6246
1582.3071,97.4892
1583.2714,97.3571
1584.2356,97.2365
1585.1998,97.1291
1586.1641,97.0316
1587.1283,96.9417
1588.0925,96.8598
1589.0568,96.7887
1590.0210,96.7309
1590.9852,96.6867
1591.9495,96.6549
1592.9137,96.6325
1593.8779,96.6151
1594.8422,96.597
1595.8064,96.574
1596.7706,96.5456
1597.7349,96.5155
1598.6991,96.4891
1599.6633,96.4706
1600.6276,96.4613
1601.5918,96.4594
1602.5560,96.461
1603.5203,96.4635
1604.4845,96.4665
1605.4487,96.4726
1606.4130,96.486
1607.3772,96.5093
1608.3414,96.5398
1609.3057,96.5686
1610.2699,96.5845
1611.2341,96.5801
1612.1984,96.5566
1613.1626,96.5275
1614.1268,96.5191
1615.0911,96.5557
1616.0553,96.6287
1617.0195,96.6949
1617.9838,96.7269
1618.9480,96.7327
1619.9122,96.7288
1620.8765,96.7284
1621.8407,96.7414
1622.8049,96.7674
1623.7692,96.7908
1624.7334,96.7955
1625.6976,96.7803
1626.6619,96.7548
1627.6261,96.7276
1628.5903,96.6992
1629.5546,96.6629
1630.5188,96.6097
1631.4830,96.5374
1632.4473,96.4616
1633.4115,96.4208
1634.3757,96.4547
1635.3400,96.5468
1636.3042,96.6135
1637.2684,96.6152
1638.2327,96.5883
1639.1969,96.561
1640.1611,96.53
1641.1254,96.4843
1642.0896,96.4214
1643.0538,96.3572
1644.0181,96.328
1644.9823,96.3731
1645.9465,96.4828
1646.9108,96.5742
1647.8750,96.5754
1648.8392,96.4905
1649.8035,96.3626
1650.7677,96.2531
1651.7319,96.2417
1652.6962,96.352
1653.6604,96.4638
1654.6246,96.4971
1655.5889,96.5115
1656.5531,96.5343
1657.5173,96.5465
1658.4816,96.5398
1659.4458,96.5311
1660.4100,96.5491
1661.3743,96.6072
1662.3385,96.6858
1663.3027,96.7514
1664.2670,96.7885
1665.2312,96.8046
1666.1954,96.8226
1667.1597,96.8754
1668.1239,96.9895
1669.0881,97.1523
1670.0524,97.3033
1671.0166,97.3911
1671.9808,97.4187
1672.9451,97.4219
1673.9093,97.4345
1674.8735,97.4729
1675.8378,97.5322
1676.8020,97.5929
1677.7662,97.6345
1678.7305,97.6426
1679.6947,97.6157
1680.6589,97.5732
1681.6232,97.5569
1682.5874,97.6037
1683.5516,97.6885
1684.5159,97.7403
1685.4801,97.7498
1686.4443,97.7565
1687.4086,97.7716
1688.3728,97.7805
1689.3370,97.7681
1690.3013,97.7285
1691.2655,97.6653
1692.2297,97.5905
1693.1940,97.5226
1694.1582,97.4825
1695.1224,97.4844
1696.0867,97.5232
1697.0509,97.5716
1698.0151,97.5964
1698.9794,97.5882
1699.9436,97.5717
1700.9078,97.5793
1701.8721,97.6205
1702.8363,97.6801
1703.8005,97.736
1704.7648,97.7713
1705.7290,97.7775
1706.6932,97.7542
1707.6575,97.7087
1708.6217,97.6497
1709.5859,97.5812
1710.5502,97.5022
1711.5144,97.413
1712.4786,97.3216
1713.4429,97.2455
1714.4071,97.208
1715.3713,97.2155
1716.3356,97.226
1717.2998,97.1759
1718.2640,97.0717
1719.2283,96.9735
1720.1925,96.9082
1721.1567,96.8635
1722.1210,96.8208
1723.0852,96.7707
1724.0494,96.7141
1725.0137,96.6574
1725.9779,96.6071
1726.9421,96.5656
1727.9064,96.5294
1728.8706,96.4939
1729.8348,96.4607
1730.7991,96.4459
1731.7633,96.4753
1732.7275,96.5589
1733.6918,96.6681
1734.6560,96.7651
1735.6202,96.8432
1736.5845,96.9124
1737.5487,96.9807
1738.5129,97.0558
1739.4772,97.1445
1740.4414,97.2462
1741.4056,97.3503
1742.3699,97.4463
1743.3341,97.5318
1744.2983,97.6104
1745.2626,97.6878
1746.2268,97.7713
1747.1910,97.8692
1748.1553,97.9846
1749.1195,98.1065
1750.0837,98.2147
1751.0480,98.3005
1752.0122,98.3727
1752.9764,98.4436
1753.9407,98.5208
1754.9049,98.6074
1755.8691,98.7018
1756.8334,98.7969
1757.7976,98.8848
1758.7618,98.9635
1759.7261,99.0396
1760.6903,99.1204
1761.6545,99.2045
1762.6188,99.2811
1763.5830,99.3388
1764.5472,99.3745
1765.5115,99.3935
1766.4757,99.4066
1767.4399,99.4276
1768.4042,99.4696
1769.3684,99.5419
1770.3326,99.6418
1771.2969,99.7476
1772.2611,99.8253
1773.2253,99.8583
1774.1896,99.8592
1775.1538,99.8492
1776.1180,99.8401
1777.0823,99.8368
1778.0465,99.8421
1779.0107,99.8558
1779.9750,99.8719
1780.9392,99.8822
1781.9034,99.8831
1782.8677,99.8787
1783.8319,99.8757
1784.7961,99.8803
1785.7604,99.8859
1786.7246,99.8836
1787.6888,99.8695
1788.6531,99.8502
1789.6173,99.8434
1790.5815,99.8679
1791.5458,99.9237
1792.5100,99.9845
1793.4742,100.024
1794.4385,100.039
1795.4027,100.036
1796.3669,100.025
1797.3312,100.014
1798.2954,100.009
1799.2596,100.015
1800.2239,100.029
1801.1881,100.04
1802.1523,100.043
1803.1166,100.039
1804.0808,100.03
1805.0450,100.018
1806.0093,100.007
1806.9735,100
1807.9377,100.003
1808.9020,100.016
1809.8662,100.034
1810.8304,100.051
1811.7947,100.058
1812.7589,100.055
1813.7231,100.047
1814.6874,100.037
1815.6516,100.031
1816.6158,100.03
1817.5801,100.032
1818.5443,100.031
1819.5085,100.026
1820.4728,100.014
1821.4370,99.9999
1822.4012,99.9875
1823.3655,99.9808
1824.3297,99.9805
1825.2939,99.9862
1826.2582,99.9987
1827.2224,100.02
1828.1866,100.049
1829.1509,100.076
1830.1151,100.091
1831.0793,100.089
1832.0436,100.075
1833.0078,100.06
1833.9720,100.049
1834.9363,100.044
1835.9005,100.044
1836.8647,100.044
1837.8290,100.035
1838.7932,100.012
1839.7574,99.9789
1840.7217,99.9449
1841.6859,99.9271
1842.6501,99.9393
1843.6144,99.9792
1844.5786,100.026
1845.5428,100.059
1846.5071,100.073
1847.4713,100.074
1848.4355,100.068
1849.3998,100.059
1850.3640,100.051
1851.3282,100.046
1852.2925,100.044
1853.2567,100.044
1854.2209,100.043
1855.1852,100.04
1856.1494,100.035
1857.1136,100.03
1858.0779,100.024
1859.0421,100.02
1860.0063,100.016
1860.9706,100.014
1861.9348,100.01
1862.8990,100.004
1863.8633,99.9977
1864.8275,99.9951
1865.7917,100.005
1866.7560,100.031
1867.7202,100.066
1868.6844,100.092
1869.6487,100.097
1870.6129,100.085
1871.5771,100.068
1872.5414,100.051
1873.5056,100.038
1874.4698,100.028
1875.4341,100.022
1876.3983,100.02
1877.3625,100.018
1878.3268,100.017
1879.2910,100.016
1880.2552,100.019
1881.2195,100.024
1882.1837,100.029
1883.1479,100.031
1884.1122,100.026
1885.0764,100.017
1886.0406,100.006
1887.0049,100.003
1887.9691,100.01
1888.9333,100.025
1889.8976,100.041
1890.8618,100.051
1891.8260,100.055
1892.7903,100.055
1893.7545,100.054
1894.7188,100.055
1895.6830,100.056
1896.6472,100.056
1897.6115,100.052
1898.5757,100.046
1899.5399,100.041
1900.5042,100.038
1901.4684,100.038
1902.4326,100.04
1903.3969,100.041
1904.3611,100.042
1905.3253,100.043
1906.2896,100.047
1907.2538,100.056
1908.2180,100.071
1909.1823,100.085
1910.1465,100.093
1911.1107,100.091
1912.0750,100.078
1913.0392,100.06
1914.0034,100.041
1914.9677,100.028
1915.9319,100.026
1916.8961,100.034
1917.8604,100.046
1918.8246,100.056
1919.7888,100.064
1920.7531,100.073
1921.7173,100.084
1922.6815,100.094
1923.6458,100.1
1924.6100,100.097
1925.5742,100.085
1926.5385,100.07
1927.5027,100.056
1928.4669,100.049
1929.4312,100.048
1930.3954,100.052
1931.3596,100.058
1932.3239,100.064
1933.2881,100.067
1934.2523,100.068
1935.2166,100.065
1936.1808,100.057
1937.1450,100.044
1938.1093,100.03
1939.0735,100.019
1940.0377,100.017
1941.0020,100.027
1941.9662,100.046
1942.9304,100.065
1943.8947,100.078
1944.8589,100.081
1945.8231,100.076
1946.7874,100.067
1947.7516,100.057
1948.7158,100.048
1949.6801,100.04
1950.6443,100.033
1951.6085,100.028
1952.5728,100.025
1953.5370,100.023
1954.5012,100.022
1955.4655,100.019
1956.4297,100.014
1957.3939,100.01
1958.3582,100.006
1959.3224,100.003
1960.2866,100.002
1961.2509,100.002
1962.2151,100.002
1963.1793,100.004
1964.1436,100.007
1965.1078,100.013
1966.0720,100.018
1967.0363,100.019
1968.0005,100.014
1968.9647,100.004
1969.9290,99.9925
1970.8932,99.9836
1971.8574,99.9791
1972.8217,99.9784
1973.7859,99.9796
1974.7501,99.9802
1975.7144,99.9792
1976.6786,99.977
1977.6428,99.9748
1978.6071,99.9732
1979.5713,99.972
1980.5355,99.9704
1981.4998,99.968
1982.4640,99.9653
1983.4282,99.9632
1984.3925,99.9623
1985.3567,99.9622
1986.3209,99.9624
1987.2852,99.9625
1988.2494,99.9628
1989.2136,99.9643
1990.1779,99.9674
1991.1421,99.9709
1992.1063,99.9732
1993.0706,99.9731
1994.0348,99.9713
1994.9990,99.9693
1995.9633,99.9684
1996.9275,99.9689
1997.8917,99.97
1998.8560,99.9701
1999.8202,99.9678
2000.7844,99.9626
2001.7487,99.9552
2002.7129,99.9473
2003.6771,99.9403
2004.6414,99.9353
2005.6056,99.9327
2006.5698,99.9324
2007.5341,99.9331
2008.4983,99.9332
2009.4625,99.9309
2010.4268,99.9255
2011.3910,99.9179
2012.3552,99.9109
2013.3195,99.9077
2014.2837,99.9108
2015.2479,99.9201
2016.2122,99.9322
2017.1764,99.9418
2018.1406,99.9448
2019.1049,99.9398
2020.0691,99.9294
2021.0333,99.9173
2021.9976,99.9073
2022.9618,99.9013
2023.9260,99.8989
2024.8903,99.8984
2025.8545,99.8978
2026.8187,99.8958
2027.7830,99.8926
2028.7472,99.8889
2029.7114,99.8857
2030.6757,99.8833
2031.6399,99.8815
2032.6041,99.8798
2033.5684,99.8777
2034.5326,99.8758
2035.4968,99.8749
2036.4611,99.876
2037.4253,99.8797
2038.3895,99.8853
2039.3538,99.8909
2040.3180,99.8944
2041.2822,99.8942
2042.2465,99.8903
2043.2107,99.8839
2044.1749,99.877
2045.1392,99.871
2046.1034,99.8663
2047.0676,99.8624
2048.0320,99.8591
2048.9961,99.8565
2049.9604,99.8553
2050.9246,99.8561
2051.8889,99.8583
2052.8530,99.8606
2053.8174,99.8615
2054.7815,99.8601
2055.7458,99.8573
2056.7100,99.8548
2057.6743,99.8541
2058.6384,99.8559
2059.6028,99.8596
2060.5669,99.8641
2061.5313,99.8688
2062.4954,99.8736
2063.4597,99.8785
2064.4238,99.8833
2065.3882,99.8866
2066.3523,99.8873
2067.3167,99.8849
2068.2808,99.8804
2069.2451,99.8756
2070.2092,99.8725
2071.1736,99.8722
2072.1377,99.8744
2073.1021,99.8776
2074.0662,99.8804
2075.0305,99.8816
2075.9946,99.8807
2076.9590,99.8781
2077.9231,99.8744
2078.8875,99.8704
2079.8516,99.8669
2080.8159,99.8647
2081.7800,99.8642
2082.7444,99.8656
2083.7085,99.8687
2084.6729,99.8729
2085.6370,99.8775
2086.6013,99.8819
2087.5654,99.8857
2088.5298,99.8887
2089.4939,99.8909
2090.4583,99.8924
2091.4224,99.8931
2092.3867,99.893
2093.3508,99.892
2094.3152,99.8902
2095.2793,99.8874
2096.2437,99.8836
2097.2078,99.8789
2098.1721,99.8736
2099.1362,99.8692
2100.1006,99.8674
2101.0647,99.8687
2102.0291,99.8731
2102.9932,99.8788
2103.9575,99.883
2104.9216,99.8837
2105.8860,99.8809
2106.8501,99.8765
2107.8145,99.8737
2108.7786,99.8746
2109.7429,99.879
2110.7070,99.8847
2111.6714,99.8884
2112.6355,99.8878
2113.5999,99.8827
2114.5640,99.8751
2115.5283,99.8678
2116.4924,99.8633
2117.4568,99.8627
2118.4209,99.8653
2119.3853,99.8693
2120.3494,99.8725
2121.3137,99.8733
2122.2778,99.8711
2123.2422,99.8669
2124.2063,99.8625
2125.1707,99.8598
2126.1348,99.86
2127.0991,99.8633
2128.0632,99.8682
2129.0276,99.8728
2129.9917,99.8756
2130.9561,99.876
2131.9202,99.875
2132.8845,99.8744
2133.8486,99.8762
2134.8130,99.881
2135.7771,99.8877
2136.7415,99.8938
2137.7056,99.8966
2138.6699,99.8947
2139.6340,99.8889
2140.5984,99.8815
2141.5625,99.8753
2142.5269,99.8722
2143.4910,99.8724
2144.4553,99.8755
2145.4194,99.8803
2146.3838,99.8861
2147.3479,99.8922
2148.3123,99.8978
2149.2764,99.9021
2150.2407,99.9043
2151.2048,99.9043
2152.1692,99.9029
2153.1333,99.9013
2154.0977,99.9008
2155.0618,99.902
2156.0261,99.9047
2156.9902,99.9079
2157.9546,99.911
2158.9187,99.9134
2159.8831,99.9153
2160.8472,99.9176
2161.8115,99.9209
2162.7756,99.926
2163.7400,99.9326
2164.7041,99.94
2165.6685,99.9468
2166.6326,99.9516
2167.5969,99.9537
2168.5610,99.953
2169.5254,99.9502
2170.4895,99.9465
2171.4539,99.9428
2172.4180,99.9402
2173.3823,99.9393
2174.3464,99.9405
2175.3108,99.9441
2176.2749,99.9497
2177.2393,99.9566
2178.2034,99.9639
2179.1677,99.9708
2180.1318,99.977
2181.0962,99.9822
2182.0603,99.9864
2183.0247,99.9892
2183.9888,99.9898
2184.9531,99.9878
2185.9172,99.9834
2186.8816,99.9781
2187.8457,99.9744
2188.8101,99.9748
2189.7742,99.9807
2190.7385,99.9914
2191.7026,100.004
2192.6670,100.016
2193.6311,100.024
2194.5955,100.027
2195.5596,100.026
2196.5239,100.024
2197.4880,100.023
2198.4524,100.024
2199.4165,100.026
2200.3809,100.028
2201.3450,100.028
2202.3093,100.027
2203.2734,100.024
2204.2378,100.022
2205.2019,100.021
2206.1663,100.022
2207.1304,100.023
2208.0947,100.025
2209.0588,100.029
2210.0232,100.032
2210.9873,100.036
2211.9517,100.039
2212.9158,100.04
2213.8801,100.04
2214.8442,100.037
2215.8086,100.034
2216.7727,100.033
2217.7371,100.034
2218.7012,100.038
2219.6655,100.045
2220.6296,100.053
2221.5940,100.058
2222.5581,100.06
2223.5225,100.057
2224.4866,100.052
2225.4509,100.046
2226.4150,100.042
2227.3794,100.04
2228.3435,100.041
2229.3079,100.042
2230.2720,100.043
2231.2363,100.044
2232.2004,100.046
2233.1648,100.05
2234.1289,100.056
2235.0933,100.061
2236.0574,100.064
2237.0217,100.064
2237.9858,100.061
2238.9502,100.057
2239.9143,100.053
2240.8787,100.051
2241.8428,100.05
2242.8071,100.049
2243.7712,100.048
2244.7356,100.048
2245.6997,100.048
2246.6641,100.05
2247.6282,100.051
2248.5925,100.05
2249.5566,100.045
2250.5210,100.037
2251.4851,100.025
2252.4495,100.013
2253.4136,100.003
2254.3779,99.9955
2255.3420,99.9917
2256.3064,99.9911
2257.2705,99.9924
2258.2349,99.9944
2259.1990,99.9955
2260.1633,99.9948
2261.1274,99.9921
2262.0918,99.988
2263.0559,99.9837
2264.0203,99.9807
2264.9844,99.9797
2265.9487,99.9807
2266.9128,99.9828
2267.8772,99.9843
2268.8413,99.9837
2269.8057,99.9805
2270.7698,99.9748
2271.7341,99.9681
2272.6982,99.9625
2273.6626,99.9603
2274.6267,99.9625
2275.5911,99.9688
2276.5552,99.9771
2277.5195,99.9847
2278.4836,99.989
2279.4480,99.9884
2280.4121,99.9828
2281.3765,99.9617
2282.3406,99.9372
2283.3049,99.91
2284.2690,99.8807
2285.2334,99.85
2286.1975,99.8186
2287.1619,99.7868
2288.1260,99.7541
2289.0903,99.7195
2290.0544,99.6814
2291.0188,99.6392
2291.9829,99.5933
2292.9473,99.545
2293.9114,99.4962
2294.8757,99.448
2295.8398,99.4008
2296.8042,99.3538
2297.7683,99.3051
2298.7327,99.2527
2299.6968,99.1943
2300.6611,99.1277
2301.6252,99.0516
2302.5896,98.9661
2303.5537,98.873
2304.5181,98.7756
2305.4822,98.6777
2306.4465,98.5825
2307.4106,98.4911
2308.3750,98.4031
2309.3391,98.3175
2310.3035,98.2337
2311.2676,98.1519
2312.2319,98.0722
2313.1960,97.9925
2314.1604,97.9088
2315.1245,97.8162
2316.0889,97.7116
2317.0530,97.5969
2318.0173,97.479
2318.9814,97.3696
2319.9458,97.2812
2320.9099,97.2248
2321.8743,97.2066
2322.8384,97.2264
2323.8027,97.2766
2324.7668,97.3436
2325.7312,97.4104
2326.6953,97.4621
2327.6597,97.4906
2328.6238,97.4976
2329.5881,97.4934
2330.5522,97.4918
2331.5166,97.5024
2332.4807,97.5266
2333.4451,97.5585
2334.4092,97.5921
2335.3735,97.627
2336.3376,97.6683
2337.3020,97.7216
2338.2661,97.7874
2339.2305,97.8598
2340.1946,97.9266
2341.1589,97.9658
2342.1230,97.941
2343.0874,97.8229
2344.0515,97.6409
2345.0159,97.4841
2345.9800,97.4138
2346.9443,97.4087
2347.9084,97.403
2348.8728,97.3457
2349.8369,97.2356
2350.8013,97.1271
2351.7654,97.114
2352.7297,97.2833
2353.6938,97.6519
2354.6582,98.1423
2355.6223,98.6491
2356.5867,99.1192
2357.5508,99.543
2358.5151,99.8959
2359.4792,100.126
2360.4436,100.199
2361.4077,100.126
2362.3721,99.9514
2363.3362,99.6955
2364.3005,99.3606
2365.2646,98.971
2366.2290,98.5649
2367.1931,98.1819
2368.1575,97.8505
2369.1216,97.585
2370.0859,97.39
2371.0500,97.2641
2372.0144,97.2042
2372.9785,97.2065
2373.9429,97.2674
2374.9070,97.3825
2375.8713,97.5444
2376.8354,97.7425
2377.7998,97.9629
2378.7639,98.1912
2379.7283,98.414
2380.6924,98.621
2381.6567,98.8052
2382.6208,98.9627
2383.5852,99.0927
2384.5493,99.1962
2385.5137,99.2759
2386.4778,99.3357
2387.4421,99.3805
2388.4063,99.4146
2389.3706,99.4418
2390.3347,99.4645
2391.2991,99.4839
2392.2632,99.5009
2393.2275,99.5167
2394.1917,99.5333
2395.1560,99.5475
2396.1201,99.5567
2397.0845,99.5664
2398.0486,99.5736
2399.0129,99.5755
2399.9771,99.572
2400.9414,99.5656
2401.9055,99.5604
2402.8699,99.5593
2403.8340,99.5627
2404.7983,99.5685
2405.7625,99.574
2406.7268,99.5774
2407.6909,99.579
2408.6553,99.5803
2409.6194,99.5823
2410.5837,99.5853
2411.5479,99.5884
2412.5122,99.5908
2413.4763,99.5919
2414.4407,99.5918
2415.4048,99.5905
2416.3691,99.5882
2417.3333,99.585
2418.2976,99.5817
2419.2617,99.5792
2420.2261,99.5784
2421.1902,99.5793
2422.1545,99.5812
2423.1187,99.5837
2424.0830,99.5866
2425.0471,99.59
2426.0115,99.5943
2426.9756,99.5985
2427.9399,99.6012
2428.9041,99.6007
2429.8684,99.5963
2430.8325,99.5888
2431.7969,99.5802
2432.7610,99.5733
2433.7253,99.5703
2434.6895,99.5723
2435.6538,99.5791
2436.6179,99.5888
2437.5823,99.5986
2438.5464,99.6061
2439.5107,99.61
2440.4749,99.6109
2441.4392,99.6107
2442.4033,99.6115
2443.3677,99.6143
2444.3318,99.6185
2445.2961,99.622
2446.2603,99.6229
2447.2246,99.6205
2448.1887,99.6161
2449.1531,99.6121
2450.1172,99.6106
2451.0815,99.6125
2452.0457,99.6169
2453.0100,99.6217
2453.9741,99.6252
2454.9385,99.6264
2455.9026,99.6257
2456.8669,99.6243
2457.8311,99.6236
2458.7954,99.6246
2459.7595,99.627
2460.7239,99.6303
2461.6880,99.6333
2462.6523,99.6353
2463.6165,99.6361
2464.5808,99.6363
2465.5449,99.637
2466.5093,99.6388
2467.4734,99.642
2468.4377,99.6457
2469.4019,99.6485
2470.3662,99.6493
2471.3303,99.648
2472.2947,99.6453
2473.2588,99.6428
2474.2231,99.642
2475.1873,99.6439
2476.1516,99.6484
2477.1157,99.655
2478.0801,99.6624
2479.0442,99.6692
2480.0085,99.674
2480.9727,99.6761
2481.9370,99.6756
2482.9011,99.6738
2483.8655,99.6726
2484.8296,99.6735
2485.7939,99.6769
2486.7581,99.6819
2487.7224,99.6866
2488.6865,99.6891
2489.6509,99.6883
2490.6150,99.6842
2491.5793,99.6779
2492.5435,99.6712
2493.5078,99.666
2494.4719,99.664
2495.4363,99.6654
2496.4004,99.669
2497.3647,99.6727
2498.3289,99.6747
2499.2932,99.6743
2500.2573,99.6727
2501.2217,99.6718
2502.1858,99.673
2503.1501,99.676
2504.1143,99.6794
2505.0786,99.6819
2506.0427,99.6832
2507.0071,99.6844
2507.9712,99.6868
2508.9355,99.6903
2509.8997,99.6935
2510.8640,99.6941
2511.8281,99.6911
2512.7925,99.6856
2513.7566,99.6804
2514.7209,99.6788
2515.6851,99.6823
2516.6494,99.6907
2517.6135,99.7018
2518.5779,99.7133
2519.5420,99.7233
2520.5063,99.7301
2521.4705,99.7329
2522.4348,99.7309
2523.3989,99.7244
2524.3633,99.7147
2525.3274,99.7044
2526.2917,99.6967
2527.2559,99.6941
2528.2202,99.6979
2529.1843,99.7073
2530.1487,99.7198
2531.1128,99.7325
2532.0771,99.7428
2533.0413,99.7494
2534.0056,99.7523
2534.9697,99.7529
2535.9341,99.7529
2536.8982,99.7535
2537.8625,99.7553
2538.8267,99.7583
2539.7910,99.7621
2540.7551,99.7664
2541.7195,99.7709
2542.6836,99.7754
2543.6479,99.7802
2544.6121,99.7852
2545.5764,99.7908
2546.5405,99.7969
2547.5049,99.8032
2548.4690,99.8086
2549.4333,99.8119
2550.3975,99.8122
2551.3618,99.8097
2552.3259,99.8059
2553.2903,99.8025
2554.2544,99.8013
2555.2188,99.8031
2556.1829,99.8076
2557.1472,99.8138
2558.1113,99.8203
2559.0757,99.826
2560.0398,99.8301
2561.0042,99.8323
2561.9683,99.833
2562.9326,99.8325
2563.8967,99.8314
2564.8611,99.8299
2565.8252,99.8288
2566.7896,99.829
2567.7537,99.8321
2568.7180,99.8388
2569.6821,99.8485
2570.6465,99.859
2571.6106,99.867
2572.5750,99.8696
2573.5391,99.8665
2574.5034,99.8597
2575.4675,99.8528
2576.4319,99.849
2577.3960,99.8497
2578.3604,99.854
2579.3245,99.8601
2580.2888,99.8664
2581.2529,99.8724
2582.2173,99.8779
2583.1814,99.8827
2584.1458,99.8859
2585.1099,99.8859
2586.0742,99.8819
2587.0383,99.8747
2588.0027,99.8668
2588.9668,99.8619
2589.9312,99.8627
2590.8953,99.87
2591.8596,99.8816
2592.8237,99.8937
2593.7881,99.9023
2594.7522,99.9054
2595.7166,99.9037
2596.6807,99.9
2597.6450,99.898
2598.6091,99.8999
2599.5735,99.9061
2600.5376,99.9149
2601.5020,99.9235
2602.4661,99.9297
2603.4304,99.9322
2604.3945,99.9308
2605.3589,99.9262
2606.3230,99.9196
2607.2874,99.9124
2608.2515,99.9066
2609.2158,99.9039
2610.1799,99.905
2611.1443,99.9089
2612.1084,99.9131
2613.0728,99.9142
2614.0369,99.9107
2615.0012,99.9034
2615.9653,99.8959
2616.9297,99.8921
2617.8938,99.8942
2618.8582,99.901
2619.8223,99.9087
2620.7866,99.9132
2621.7507,99.9126
2622.7151,99.9072
2623.6792,99.8997
2624.6436,99.8926
2625.6077,99.8872
2626.5720,99.8833
2627.5361,99.8805
2628.5005,99.8782
2629.4646,99.8765
2630.4290,99.8757
2631.3931,99.8758
2632.3574,99.8766
2633.3215,99.8779
2634.2859,99.8793
2635.2500,99.8808
2636.2144,99.8823
2637.1785,99.884
2638.1428,99.8861
2639.1069,99.8893
2640.0713,99.8938
2641.0354,99.8991
2641.9998,99.9037
2642.9639,99.9055
2643.9282,99.9031
2644.8923,99.8967
2645.8567,99.8886
2646.8208,99.8818
2647.7852,99.8787
2648.7493,99.8802
2649.7136,99.8847
2650.6777,99.8897
2651.6421,99.8927
2652.6062,99.8923
2653.5706,99.8888
2654.5347,99.8839
2655.4990,99.8797
2656.4631,99.8783
2657.4275,99.8802
2658.3916,99.8845
2659.3560,99.8889
2660.3201,99.8905
2661.2844,99.8878
2662.2485,99.8811
2663.2129,99.8723
2664.1770,99.8646
2665.1414,99.8605
2666.1055,99.861
2667.0698,99.8655
2668.0339,99.8719
2668.9983,99.8779
2669.9624,99.8815
2670.9268,99.8815
2671.8909,99.8779
2672.8552,99.8715
2673.8193,99.8643
2674.7837,99.8583
2675.7478,99.8549
2676.7122,99.8543
2677.6763,99.8554
2678.6406,99.8568
2679.6047,99.8573
2680.5691,99.8563
2681.5332,99.8539
2682.4976,99.8504
2683.4617,99.8458
2684.4260,99.8403
2685.3901,99.8345
2686.3545,99.8295
2687.3186,99.8268
2688.2830,99.8269
2689.2471,99.8297
2690.2114,99.834
2691.1755,99.8385
2692.1399,99.8418
2693.1040,99.8431
2694.0684,99.842
2695.0325,99.8384
2695.9968,99.8328
2696.9609,99.8262
2697.9253,99.82
2698.8894,99.815
2699.8538,99.8112
2700.8179,99.8081
2701.7822,99.805
2702.7463,99.802
2703.7107,99.7997
2704.6748,99.7983
2705.6392,99.797
2706.6033,99.794
2707.5676,99.7878
2708.5317,99.7783
2709.4961,99.7678
2710.4602,99.7598
2711.4246,99.7573
2712.3887,99.761
2713.3530,99.7692
2714.3171,99.7785
2715.2815,99.7858
2716.2456,99.7892
2717.2100,99.7889
2718.1741,99.7862
2719.1384,99.7828
2720.1025,99.78
2721.0669,99.7778
2722.0310,99.7756
2722.9954,99.7722
2723.9595,99.7667
2724.9238,99.7593
2725.8879,99.7512
2726.8523,99.7439
2727.8164,99.7385
2728.7808,99.735
2729.7449,99.7325
2730.7092,99.7297
2731.6733,99.7263
2732.6377,99.7228
2733.6018,99.7203
2734.5662,99.7195
2735.5303,99.7205
2736.4946,99.7224
2737.4587,99.724
2738.4231,99.7245
2739.3872,99.7233
2740.3516,99.7208
2741.3157,99.7178
2742.2800,99.7157
2743.2441,99.7155
2744.2085,99.7179
2745.1726,99.7222
2746.1370,99.7262
2747.1011,99.7274
2748.0654,99.7243
2749.0295,99.7174
2749.9939,99.7094
2750.9580,99.7037
2751.9224,99.7028
2752.8865,99.7063
2753.8508,99.7119
2754.8149,99.7161
2755.7793,99.7166
2756.7434,99.7133
2757.7078,99.7079
2758.6719,99.7028
2759.6362,99.6998
2760.6003,99.6988
2761.5647,99.6986
2762.5288,99.6978
2763.4932,99.6956
2764.4573,99.6926
2765.4216,99.6903
2766.3857,99.6897
2767.3501,99.6905
2768.3142,99.6908
2769.2786,99.6881
2770.2427,99.6806
2771.2070,99.6685
2772.1711,99.6541
2773.1355,99.6408
2774.0996,99.6314
2775.0640,99.6273
2776.0281,99.6275
2776.9924,99.6296
2777.9565,99.6309
2778.9209,99.6295
2779.8850,99.625
2780.8494,99.6183
2781.8135,99.611
2782.7778,99.6051
2783.7419,99.6015
2784.7063,99.5998
2785.6704,99.5981
2786.6348,99.5944
2787.5989,99.5867
2788.5632,99.5748
2789.5273,99.5604
2790.4917,99.546
2791.4558,99.5343
2792.4202,99.5271
2793.3843,99.5246
2794.3486,99.5232
2795.3127,99.5132
2796.2771,99.5004
2797.2412,99.4817
2798.2056,99.4559
2799.1697,99.4239
2800.1340,99.3891
2801.0981,99.3556
2802.0625,99.3266
2803.0266,99.3034
2803.9910,99.2845
2804.9551,99.2672
2805.9194,99.2485
2806.8835,99.226
2807.8479,99.1991
2808.8120,99.1681
2809.7764,99.1346
2810.7405,99.101
2811.7048,99.0696
2812.6689,99.0416
2813.6333,99.0163
2814.5974,98.991
2815.5618,98.9624
2816.5259,98.9286
2817.4902,98.8902
2818.4543,98.8503
2819.4187,98.8125
2820.3828,98.7785
2821.3472,98.7477
2822.3113,98.7174
2823.2756,98.6854
2824.2397,98.6502
2825.2041,98.612
2826.1682,98.5711
2827.1326,98.5274
2828.0967,98.4807
2829.0610,98.4312
2830.0251,98.3805
2830.9895,98.3304
2831.9536,98.2827
2832.9180,98.2385
2833.8821,98.1984
2834.8464,98.1634
2835.8105,98.1351
2836.7749,98.1145
2837.7390,98.1011
2838.7034,98.0921
2839.6675,98.0845
2840.6318,98.0765
2841.5959,98.0695
2842.5603,98.0673
2843.5244,98.0739
2844.4888,98.0918
2845.4529,98.1203
2846.4172,98.1563
2847.3813,98.1956
2848.3457,98.2331
2849.3098,98.2639
2850.2742,98.2828
2851.2383,98.2853
2852.2026,98.2685
2853.1667,98.2322
2854.1311,98.1784
2855.0952,98.1109
2856.0596,98.0337
2857.0237,97.9507
2857.9880,97.865
2858.9521,97.7798
2859.9165,97.6979
2860.8806,97.6218
2861.8450,97.5535
2862.8091,97.4934
2863.7734,97.4405
2864.7375,97.3928
2865.7019,97.348
2866.6660,97.3045
2867.6304,97.2623
2868.5945,97.2228
2869.5588,97.1873
2870.5229,97.1566
2871.4873,97.1297
2872.4514,97.1052
2873.4158,97.0819
2874.3799,97.0603
2875.3442,97.0426
2876.3083,97.0317
2877.2727,97.0294
2878.2368,97.0357
2879.2012,97.0489
2880.1653,97.0659
2881.1296,97.0834
2882.0938,97.099
2883.0581,97.1116
2884.0222,97.1215
2884.9866,97.1296
2885.9507,97.1372
2886.9150,97.145
2887.8792,97.1533
2888.8435,97.1624
2889.8076,97.1722
2890.7720,97.1823
2891.7361,97.1922
2892.7004,97.2019
2893.6646,97.2134
2894.6289,97.2317
2895.5930,97.2634
2896.5574,97.3133
2897.5215,97.3802
2898.4858,97.4546
2899.4500,97.5212
2900.4143,97.5654
2901.3784,97.5807
2902.3428,97.5722
2903.3069,97.5534
2904.2712,97.5403
2905.2354,97.5442
2906.1997,97.569
2907.1638,97.6121
2908.1282,97.6677
2909.0923,97.7295
2910.0566,97.7923
2911.0208,97.8529
2911.9851,97.9104
2912.9492,97.9661
2913.9136,98.0229
2914.8777,98.0838
2915.8420,98.149
2916.8062,98.2156
2917.7705,98.278
2918.7346,98.3305
2919.6990,98.3697
2920.6631,98.3954
2921.6274,98.4094
2922.5916,98.4134
2923.5559,98.4078
2924.5200,98.3906
2925.4844,98.3596
2926.4485,98.3139
2927.4128,98.2554
2928.3770,98.1889
2929.3413,98.121
2930.3054,98.0575
2931.2698,98.0013
2932.2339,97.952
2933.1982,97.9072
2934.1624,97.865
2935.1267,97.8253
2936.0908,97.791
2937.0552,97.7659
2938.0193,97.7536
2938.9836,97.7549
2939.9478,97.7686
2940.9121,97.792
2941.8762,97.822
2942.8406,97.8566
2943.8047,97.8947
2944.7690,97.9361
2945.7332,97.9818
2946.6975,98.0335
2947.6616,98.0932
2948.6260,98.1623
2949.5901,98.2405
2950.5544,98.3257
2951.5186,98.4142
2952.4829,98.502
2953.4470,98.5855
2954.4114,98.6631
2955.3755,98.7348
2956.3398,98.8019
2957.3040,98.866
2958.2683,98.9279
2959.2324,98.9871
2960.1968,99.0423
2961.1609,99.0924
2962.1252,99.1377
2963.0894,99.1804
2964.0537,99.223
2965.0178,99.2673
2965.9822,99.3131
2966.9463,99.3578
2967.9106,99.3985
2968.8748,99.433
2969.8391,99.4606
2970.8032,99.482
2971.7676,99.498
2972.7317,99.5099
2973.6960,99.5194
2974.6602,99.5293
2975.6245,99.5424
2976.5886,99.5606
2977.5530,99.5826
2978.5171,99.6049
2979.4814,99.6238
2980.4456,99.6384
2981.4099,99.6525
2982.3740,99.6735
2983.3384,99.7085
2984.3025,99.7592
2985.2668,99.8187
2986.2310,99.8731
2987.1953,99.9057
2988.1594,99.9047
2989.1238,99.8683
2990.0879,99.8061
2991.0522,99.7345
2992.0164,99.669
2992.9807,99.6183
2993.9448,99.5823
2994.9092,99.5537
2995.8733,99.524
2996.8376,99.4879
2997.8018,99.4459
2998.7661,99.4028
2999.7302,99.3637
3000.6946,99.3302
3001.6587,99.2994
3002.6230,99.2651
3003.5872,99.2215
3004.5515,99.1665
3005.5156,99.1026
3006.4800,99.0356
3007.4441,98.9716
3008.4084,98.9145
3009.3726,98.8648
3010.3369,98.8207
3011.3010,98.7795
3012.2654,98.7389
3013.2295,98.6978
3014.1938,98.6552
3015.1580,98.6102
3016.1223,98.5619
3017.0864,98.5102
3018.0508,98.4558
3019.0149,98.4007
3019.9792,98.3471
3020.9434,98.2964
3021.9077,98.2488
3022.8718,98.2041
3023.8362,98.1625
3024.8003,98.1247
3025.7646,98.0919
3026.7288,98.0647
3027.6931,98.0421
3028.6572,98.0212
3029.6216,97.9975
3030.5857,97.9669
3031.5500,97.9271
3032.5142,97.8793
3033.4785,97.8274
3034.4426,97.7769
3035.4070,97.7323
3036.3711,97.6958
3037.3354,97.6666
3038.2996,97.6425
3039.2639,97.6207
3040.2280,97.5991
3041.1924,97.5763
3042.1565,97.551
3043.1208,97.5225
3044.0850,97.4903
3045.0493,97.4556
3046.0134,97.4211
3046.9778,97.3899
3047.9419,97.3643
3048.9063,97.3442
3049.8704,97.3265
3050.8347,97.3071
3051.7988,97.283
3052.7632,97.2538
3053.7273,97.2216
3054.6917,97.1904
3055.6558,97.1632
3056.6201,97.1411
3057.5842,97.1226
3058.5486,97.1048
3059.5127,97.0853
3060.4771,97.0635
3061.4412,97.0409
3062.4055,97.0193
3063.3696,96.9997
3064.3340,96.981
3065.2981,96.9602
3066.2625,96.9347
3067.2266,96.9035
3068.1909,96.8682
3069.1550,96.8321
3070.1194,96.7979
3071.0835,96.7671
3072.0479,96.7401
3073.0120,96.717
3073.9763,96.698
3074.9404,96.6837
3075.9048,96.673
3076.8689,96.6635
3077.8333,96.6511
3078.7974,96.6322
3079.7617,96.6057
3080.7258,96.5732
3081.6902,96.5384
3082.6543,96.5051
3083.6187,96.4758
3084.5828,96.4513
3085.5471,96.4312
3086.5112,96.4137
3087.4756,96.3962
3088.4397,96.3767
3089.4041,96.3542
3090.3682,96.3302
3091.3325,96.3082
3092.2966,96.2909
3093.2610,96.2787
3094.2251,96.2679
3095.1895,96.2536
3096.1536,96.2324
3097.1179,96.2055
3098.0820,96.1775
3099.0464,96.1531
3100.0105,96.133
3100.9749,96.1128
3101.9390,96.0865
3102.9033,96.0508
3103.8674,96.0079
3104.8318,95.9647
3105.7959,95.9281
3106.7603,95.9009
3107.7244,95.8802
3108.6887,95.86
3109.6528,95.8353
3110.6172,95.8051
3111.5813,95.7724
3112.5457,95.7422
3113.5098,95.7175
3114.4741,95.6985
3115.4382,95.6825
3116.4026,95.6661
3117.3667,95.6467
3118.3311,95.6236
3119.2952,95.5975
3120.2595,95.569
3121.2236,95.5377
3122.1880,95.5023
3123.1521,95.4613
3124.1165,95.4137
3125.0806,95.3609
3126.0449,95.3069
3127.0090,95.2575
3127.9734,95.2189
3128.9375,95.1942
3129.9019,95.1821
3130.8660,95.1759
3131.8303,95.166
3132.7944,95.1439
3133.7588,95.106
3134.7229,95.0553
3135.6873,94.9998
3136.6514,94.9485
3137.6157,94.9069
3138.5798,94.8761
3139.5442,94.8526
3140.5083,94.8314
3141.4727,94.8078
3142.4368,94.7793
3143.4011,94.7457
3144.3652,94.7087
3145.3296,94.6706
3146.2937,94.6338
3147.2581,94.5994
3148.2222,94.567
3149.1865,94.5348
3150.1506,94.5006
3151.1150,94.4629
3152.0791,94.4221
3153.0435,94.3802
3154.0076,94.3396
3154.9719,94.3018
3155.9360,94.2661
3156.9004,94.2299
3157.8645,94.1903
3158.8289,94.1462
3159.7930,94.0999
3160.7573,94.056
3161.7214,94.0202
3162.6858,93.9951
3163.6499,93.979
3164.6143,93.9654
3165.5784,93.9468
3166.5427,93.9179
3167.5068,93.8783
3168.4712,93.832
3169.4353,93.7154
3170.3997,93.6735
3171.3638,93.6384
3172.3281,93.6083
3173.2922,93.5799
3174.2566,93.5499
3175.2207,93.5157
3176.1851,93.4759
3177.1492,93.4307
3178.1135,93.3822
3179.0776,93.3341
3180.0420,93.2901
3181.0061,93.2513
3181.9705,93.216
3182.9346,93.1803
3183.8989,93.1412
3184.8630,93.0992
3185.8274,93.0582
3186.7915,93.0229
3187.7559,92.9949
3188.7200,92.9706
3189.6843,92.9431
3190.6484,92.906
3191.6128,92.8576
3192.5769,92.8019
3193.5413,92.7464
3194.5054,92.6975
3195.4697,92.6571
3196.4338,92.623
3197.3982,92.5902
3198.3623,92.5554
3199.3267,92.5182
3200.2908,92.4807
3201.2551,92.4449
3202.2192,92.4104
3203.1836,92.3745
3204.1477,92.3339
3205.1121,92.2872
3206.0762,92.2365
3207.0405,92.1867
3208.0046,92.1431
3208.9690,92.1085
3209.9331,92.0817
3210.8975,92.0581
3211.8616,92.032
3212.8259,91.9996
3213.7900,91.9604
3214.7544,91.9173
3215.7185,91.8744
3216.6829,91.8349
3217.6470,91.7994
3218.6113,91.7657
3219.5754,91.7305
3220.5398,91.6907
3221.5039,91.6451
3222.4683,91.5947
3223.4324,91.5422
3224.3967,91.4911
3225.3608,91.4446
3226.3252,91.405
3227.2893,91.3727
3228.2537,91.3461
3229.2178,91.3214
3230.1821,91.2945
3231.1462,91.2619
3232.1106,91.2224
3233.0747,91.1773
3234.0391,91.1294
3235.0032,91.0819
3235.9675,91.037
3236.9316,90.9958
3237.8960,90.9581
3238.8601,90.9232
3239.8245,90.8897
3240.7886,90.8567
3241.7529,90.8231
3242.7170,90.7891
3243.6814,90.7551
3244.6455,90.7219
3245.6099,90.6893
3246.5740,90.656
3247.5383,90.6193
3248.5024,90.5773
3249.4668,90.5302
3250.4309,90.4813
3251.3953,90.4357
3252.3594,90.3978
3253.3237,90.3684
3254.2878,90.3444
3255.2522,90.3201
3256.2163,90.2905
3257.1807,90.2539
3258.1448,90.2119
3259.1091,90.168
3260.0732,90.1254
3261.0376,90.085
3262.0017,90.0458
3262.9661,90.0052
3263.9302,89.9613
3264.8945,89.9134
3265.8586,89.8636
3266.8230,89.816
3267.7871,89.7757
3268.7515,89.7468
3269.7156,89.7297
3270.6799,89.7208
3271.6440,89.713
3272.6084,89.6985
3273.5725,89.6722
3274.5369,89.6341
3275.5010,89.5894
3276.4653,89.546
3277.4294,89.5113
3278.3938,89.4894
3279.3579,89.4805
3280.3223,89.4804
3281.2864,89.4832
3282.2507,89.4825
3283.2148,89.4741
3284.1792,89.4563
3285.1433,89.4306
3286.1077,89.3999
3287.0718,89.3675
3288.0361,89.3359
3289.0002,89.3065
3289.9646,89.28
3290.9287,89.2565
3291.8931,89.2355
3292.8572,89.2156
3293.8215,89.1953
3294.7856,89.1734
3295.7500,89.1502
3296.7141,89.1277
3297.6785,89.1091
3298.6426,89.0966
3299.6069,89.0905
3300.5710,89.0886
3301.5354,89.0872
3302.4995,89.083
3303.4639,89.0744
3304.4280,89.0617
3305.3923,89.0465
3306.3564,89.03
3307.3208,89.0133
3308.2849,88.9972
3309.2493,88.9831
3310.2134,88.9722
3311.1777,88.9651
3312.1418,88.9599
3313.1062,88.9533
3314.0703,88.9415
3315.0347,88.9229
3315.9988,88.8988
3316.9631,88.8724
3317.9272,88.8471
3318.8916,88.8247
3319.8557,88.805
3320.8201,88.7871
3321.7842,88.7711
3322.7485,88.7583
3323.7126,88.7504
3324.6770,88.7476
3325.6411,88.7476
3326.6055,88.7468
3327.5696,88.7413
3328.5339,88.7291
3329.4980,88.7103
3330.4624,88.6875
3331.4265,88.6645
3332.3909,88.6459
3333.3550,88.6355
3334.3193,88.6355
3335.2834,88.6456
3336.2478,88.6627
3337.2119,88.6828
3338.1763,88.7022
3339.1404,88.7187
3340.1047,88.7317
3341.0688,88.7415
3342.0332,88.7477
3342.9973,88.7499
3343.9617,88.7478
3344.9258,88.7423
3345.8901,88.7358
3346.8542,88.7316
3347.8186,88.7324
3348.7827,88.7392
3349.7471,88.7513
3350.7112,88.7663
3351.6755,88.7812
3352.6396,88.7945
3353.6040,88.8062
3354.5681,88.8179
3355.5325,88.8319
3356.4966,88.849
3357.4609,88.8676
3358.4250,88.8841
3359.3894,88.8949
3360.3535,88.8989
3361.3179,88.8987
3362.2820,88.8998
3363.2463,88.9079
3364.2104,88.9262
3365.1748,88.9544
3366.1389,88.9896
3367.1033,89.028
3368.0674,89.0665
3369.0317,89.1022
3369.9958,89.1323
3370.9602,89.1551
3371.9243,89.1709
3372.8887,89.1832
3373.8528,89.1973
3374.8171,89.2174
3375.7813,89.2431
3376.7456,89.2689
3377.7097,89.2873
3378.6741,89.2943
3379.6382,89.2929
3380.6025,89.2926
3381.5667,89.3042
3382.5310,89.3336
3383.4951,89.3776
3384.4595,89.4245
3385.4236,89.4604
3386.3879,89.4764
3387.3521,89.4733
3388.3164,89.4611
3389.2805,89.4536
3390.2449,89.4617
3391.2090,89.4878
3392.1733,89.5248
3393.1375,89.5611
3394.1018,89.5874
3395.0659,89.6016
3396.0303,89.6084
3396.9944,89.6156
3397.9587,89.6286
3398.9229,89.6474
3399.8872,89.6684
3400.8513,89.6885
3401.8157,89.7078
3402.7798,89.7294
3403.7441,89.7567
3404.7083,89.7891
3405.6726,89.8221
3406.6367,89.8497
3407.6011,89.869
3408.5652,89.8824
3409.5295,89.8971
3410.4937,89.9201
3411.4580,89.954
3412.4221,89.9949
3413.3865,90.0354
3414.3506,90.0689
3415.3149,90.0942
3416.2791,90.1167
3417.2434,90.1443
3418.2075,90.1824
3419.1719,90.2295
3420.1360,90.2778
3421.1003,90.318
3422.0645,90.3454
3423.0288,90.3624
3423.9929,90.3763
3424.9573,90.3943
3425.9214,90.4198
3426.8857,90.4507
3427.8499,90.4815
3428.8142,90.5062
3429.7783,90.5232
3430.7427,90.5362
3431.7068,90.5526
3432.6711,90.5791
3433.6353,90.6178
3434.5996,90.665
3435.5637,90.7133
3436.5281,90.7558
3437.4922,90.7899
3438.4565,90.8172
3439.4207,90.8416
3440.3850,90.8655
3441.3491,90.8892
3442.3135,90.9131
3443.2776,90.9402
3444.2419,90.9767
3445.2061,91.0281
3446.1704,91.0944
3447.1345,91.1671
3448.0989,91.2345
3449.0630,91.2884
3450.0273,91.3284
3450.9915,91.361
3451.9558,91.3939
3452.9199,91.431
3453.8843,91.4691
3454.8484,91.5014
3455.8127,91.5239
3456.7769,91.5399
3457.7412,91.5594
3458.7053,91.5935
3459.6697,91.6466
3460.6338,91.7137
3461.5981,91.7826
3462.5623,91.842
3463.5266,91.8879
3464.4907,91.925
3465.4551,91.9623
3466.4192,92.0063
3467.3835,92.0564
3468.3477,92.1058
3469.3120,92.1464
3470.2761,92.1747
3471.2405,92.1945
3472.2046,92.2143
3473.1689,92.2426
3474.1331,92.2828
3475.0974,92.3329
3476.0615,92.3884
3477.0259,92.4466
3477.9900,92.5074
3478.9543,92.5715
3479.9185,92.6365
3480.8828,92.6953
3481.8469,92.7407
3482.8113,92.7713
3483.7754,92.7937
3484.7397,92.8192
3485.7039,92.8569
3486.6682,92.909
3487.6323,92.9694
3488.5967,93.0275
3489.5608,93.0753
3490.5251,93.1118
3491.4893,93.1434
3492.4536,93.1802
3493.4177,93.2296
3494.3821,93.2913
3495.3462,93.3559
3496.3105,93.4097
3497.2747,93.4437
3498.2390,93.4603
3499.2031,93.4737
3500.1675,93.5036
3501.1316,93.562
3502.0959,93.643
3503.0601,93.7239
3504.0244,93.7814
3504.9885,93.8079
3505.9529,93.8144
3506.9170,93.8225
3507.8813,93.8531
3508.8455,93.9139
3509.8098,93.995
3510.7739,94.0757
3511.7383,94.1388
3512.7024,94.1795
3513.6667,94.2039
3514.6309,94.2221
3515.5952,94.2416
3516.5593,94.2648
3517.5237,94.2911
3518.4878,94.3207
3519.4521,94.3571
3520.4163,94.4057
3521.3806,94.4694
3522.3447,94.5451
3523.3091,94.6248
3524.2732,94.7019
3525.2375,94.7747
3526.2017,94.8449
3527.1660,94.9124
3528.1301,94.9712
3529.0945,95.0128
3530.0586,95.0324
3531.0229,95.0323
3531.9871,95.0225
3532.9514,95.0167
3533.9155,95.0283
3534.8799,95.0638
3535.8440,95.1188
3536.8083,95.1809
3537.7725,95.236
3538.7368,95.2754
3539.7009,95.2983
3540.6653,95.3125
3541.6294,95.334
3542.5938,95.3815
3543.5579,95.464
3544.5222,95.5693
3545.4863,95.6674
3546.4507,95.7328
3547.4148,95.7612
3548.3792,95.7662
3549.3433,95.769
3550.3076,95.7899
3551.2717,95.8406
3552.2361,95.9164
3553.2002,95.9982
3554.1646,96.066
3555.1287,96.1112
3556.0930,96.1389
3557.0571,96.1633
3558.0215,96.197
3558.9856,96.2389
3559.9500,96.2715
3560.9141,96.2719
3561.8784,96.2318
3562.8425,96.1735
3563.8069,96.1519
3564.7710,96.2278
3565.7354,96.4072
3566.6995,96.6067
3567.6638,96.7304
3568.6279,96.7646
3569.5923,96.748
3570.5564,96.7087
3571.5208,96.6614
3572.4849,96.624
3573.4492,96.6178
3574.4133,96.6543
3575.3777,96.7275
3576.3418,96.8203
3577.3062,96.9151
3578.2703,96.9984
3579.2346,97.0569
3580.1987,97.0749
3581.1631,97.0393
3582.1272,96.9517
3583.0916,96.8422
3584.0557,96.7746
3585.0200,96.8245
3585.9841,97.0158
3586.9485,97.2648
3587.9126,97.4401
3588.8770,97.4869
3589.8411,97.4389
3590.8054,97.3505
3591.7695,97.2698
3592.7339,97.237
3593.6980,97.2699
3594.6624,97.3503
3595.6265,97.4404
3596.5908,97.5184
3597.5549,97.5902
3598.5193,97.6729
3599.4834,97.7684
3600.4478,97.8541
3601.4119,97.8969
3602.3762,97.8779
3603.3403,97.8044
3604.3047,97.7084
3605.2688,97.6355
3606.2332,97.6222
3607.1973,97.6706
3608.1616,97.7482
3609.1257,97.8216
3610.0901,97.8828
3611.0542,97.9392
3612.0186,97.9901
3612.9829,98.0192
3613.9470,98.0096
3614.9114,97.9648
3615.8755,97.9189
3616.8398,97.9248
3617.8040,98.0177
3618.7683,98.1755
3619.7324,98.3279
3620.6968,98.4153
3621.6609,98.4142
3622.6252,98.3139
3623.5894,98.114
3624.5537,97.8543
3625.5178,97.6429
3626.4822,97.6332
3627.4463,97.9006
3628.4106,98.2986
3629.3748,98.5781
3630.3391,98.6712
3631.3032,98.6605
3632.2676,98.6138
3633.2317,98.5593
3634.1960,98.5156
3635.1602,98.499
3636.1245,98.517
3637.0886,98.5672
3638.0530,98.6414
3639.0171,98.7281
3639.9814,98.809
3640.9456,98.8549
3641.9099,98.8313
3642.8740,98.7154
3643.8384,98.5206
3644.8025,98.3246
3645.7668,98.2905
3646.7310,98.6235
3647.6953,99.3438
3648.6594,100.011
3649.6238,100.138
3650.5879,99.8454
3651.5522,99.472
3652.5164,99.1553
3653.4807,98.9147
3654.4448,98.7745
3655.4092,98.7678
3656.3733,98.8885
3657.3376,99.0774
3658.3018,99.2654
3659.2661,99.4124
3660.2302,99.5111
3661.1946,99.5687
3662.1587,99.5854
3663.1230,99.5446
3664.0872,99.4256
3665.0515,99.2355
3666.0156,99.0328
3666.9800,98.9234
3667.9441,98.9928
3668.9084,99.1948
3669.8726,99.3466
3670.8369,99.3091
3671.8010,99.1162
3672.7654,98.9195
3673.7295,98.8888
3674.6938,99.0984
3675.6580,99.4312
3676.6223,99.6884
3677.5864,99.7952
3678.5508,99.7895
3679.5149,99.7162
3680.4792,99.6015
3681.4434,99.4593
3682.4077,99.2889
3683.3718,99.0805
3684.3362,98.8419
3685.3003,98.6269
3686.2646,98.5386
3687.2288,98.7083
3688.1931,99.1499
3689.1572,99.6526
3690.1216,99.9521
3691.0857,99.9927
3692.0500,99.8752
3693.0142,99.6915
3693.9785,99.4855
3694.9426,99.2771
3695.9070,99.079
3696.8711,98.9061
3697.8354,98.7837
3698.7996,98.7483
3699.7639,98.8312
3700.7280,99.0237
3701.6924,99.2566
3702.6565,99.432
3703.6208,99.4812
3704.5850,99.3882
3705.5493,99.1794
3706.5134,98.9188
3707.4778,98.711
3708.4419,98.683
3709.4063,98.9057
3710.3704,99.2813
3711.3347,99.5828
3712.2988,99.6885
3713.2632,99.6506
3714.2273,99.5487
3715.1917,99.4165
3716.1558,99.2715
3717.1201,99.1446
3718.0842,99.0798
3719.0486,99.111
3720.0127,99.2416
3720.9771,99.4438
3721.9412,99.6776
3722.9055,99.907
3723.8696,100.099
3724.8340,100.22
3725.7981,100.242
3726.7625,100.156
3727.7266,99.9697
3728.6909,99.7068
3729.6550,99.4147
3730.6194,99.1801
3731.5835,99.13
3732.5479,99.3914
3733.5120,99.9769
3734.4763,100.665
3735.4404,101.12
3736.4048,101.211
3737.3689,101.044
3738.3333,100.723
3739.2974,100.287
3740.2617,99.7674
3741.2258,99.2627
3742.1902,98.9363
3743.1543,98.9178
3744.1187,99.1541
3745.0828,99.4295
3746.0471,99.5814
3747.0112,99.607
3747.9756,99.6097
3748.9397,99.7081
3749.9041,99.9036
3750.8682,100.026
3751.8325,99.9514
3752.7966,99.7494
3753.7610,99.5197
3754.7251,99.2989
3755.6895,99.1141
3756.6536,99.0114
3757.6179,99.0202
3758.5820,99.109
3759.5464,99.201
3760.5105,99.2364
3761.4749,99.2016
3762.4390,99.1156
3763.4033,99.012
3764.3674,98.926
3765.3318,98.8832
3766.2959,98.8939
3767.2603,98.9545
3768.2244,99.0507
3769.1887,99.1571
3770.1528,99.2404
3771.1172,99.271
3772.0813,99.2338
3773.0457,99.1292
3774.0098,98.9749
3774.9741,98.8118
3775.9382,98.7031
3776.9026,98.708
3777.8667,98.8362
3778.8311,99.0273
3779.7952,99.1942
3780.7595,99.2874
3781.7236,99.3109
3782.6880,99.2947
3783.6521,99.2675
3784.6165,99.2436
3785.5806,99.224
3786.5449,99.2035
3787.5090,99.178
3788.4734,99.1433
3789.4375,99.0945
3790.4019,99.0298
3791.3660,98.9591
3792.3303,98.9073
3793.2944,98.9048
3794.2588,98.9647
3795.2229,99.0652
3796.1873,99.1599
3797.1514,99.2142
3798.1157,99.2344
3799.0798,99.2549
3800.0442,99.2871
3801.0083,99.2871
3801.9727,99.2037
3802.9368,99.0447
3803.9011,98.8705
3804.8652,98.7542
3805.8296,98.7536
3806.7937,98.8777
3807.7581,99.0671
3808.7222,99.2298
3809.6865,99.2935
3810.6506,99.2315
3811.6150,99.0721
3812.5791,98.8985
3813.5435,98.8135
3814.5076,98.8661
3815.4719,99.0018
3816.4360,99.1159
3817.4004,99.1579
3818.3645,99.1573
3819.3289,99.165
3820.2930,99.1901
3821.2573,99.2025
3822.2214,99.1891
3823.1858,99.1684
3824.1499,99.1572
3825.1143,99.1599
3826.0784,99.179
3827.0427,99.2157
3828.0068,99.2644
3828.9712,99.3105
3829.9353,99.3348
3830.8997,99.3178
3831.8638,99.2442
3832.8281,99.1097
3833.7922,98.9328
3834.7566,98.7616
3835.7207,98.6642
3836.6851,98.6927
3837.6492,98.8414
3838.6135,99.0445
3839.5776,99.2323
3840.5420,99.3773
3841.5061,99.4866
3842.4705,99.5735
3843.4346,99.6405
3844.3989,99.6744
3845.3630,99.6464
3846.3274,99.5184
3847.2915,99.2572
3848.2559,98.8612
3849.2200,98.3972
3850.1843,98.0376
3851.1484,98.0415
3852.1128,98.5484
3853.0769,99.2596
3854.0413,99.6956
3855.0054,99.8054
3855.9697,99.7659
3856.9338,99.6474
3857.8982,99.4511
3858.8623,99.201
3859.8267,98.9698
3860.7908,98.8524
3861.7551,98.9065
3862.7192,99.0925
3863.6836,99.285
3864.6477,99.3698
3865.6121,99.32
3866.5762,99.1872
3867.5405,99.0559
3868.5046,99.0037
3869.4690,99.0638
3870.4331,99.2058
3871.3975,99.358
3872.3616,99.4573
3873.3259,99.4772
3874.2900,99.4198
3875.2544,99.3031
3876.2185,99.1595
3877.1829,99.0366
3878.1470,98.9855
3879.1113,99.0317
3880.0754,99.1502
3881.0398,99.2783
3882.0039,99.3614
3882.9683,99.3846
3883.9324,99.3614
3884.8967,99.3064
3885.8608,99.2244
3886.8252,99.1202
3887.7893,99.0134
3888.7537,98.9476
3889.7178,98.9812
3890.6821,99.1433
3891.6462,99.3829
3892.6106,99.5874
3893.5747,99.6654
3894.5391,99.5914
3895.5032,99.3943
3896.4675,99.14
3897.4316,98.9124
3898.3960,98.7833
3899.3601,98.7801
3900.3245,98.8843
3901.2886,99.0567
3902.2529,99.2554
3903.2170,99.4355
3904.1814,99.5584
3905.1455,99.6116
3906.1099,99.6068
3907.0740,99.563
3908.0383,99.4982
3909.0024,99.4294
3909.9668,99.3687
3910.9309,99.3188
3911.8953,99.2738
3912.8594,99.2301
3913.8237,99.1982
3914.7878,99.2022
3915.7522,99.2623
3916.7163,99.3707
3917.6807,99.4874
3918.6448,99.5674
3919.6091,99.5904
3920.5732,99.5653
3921.5376,99.5193
3922.5017,99.4822
3923.4661,99.4691
3924.4302,99.4721
3925.3945,99.4698
3926.3586,99.4465
3927.3230,99.4051
3928.2871,99.3678
3929.2515,99.3671
3930.2156,99.424
3931.1799,99.5289
3932.1440,99.643
3933.1084,99.7247
3934.0725,99.7519
3935.0369,99.7222
3936.0010,99.6442
3936.9653,99.5339
3937.9294,99.4142
3938.8938,99.3139
3939.8579,99.2608
3940.8223,99.2703
3941.7864,99.3337
3942.7507,99.4204
3943.7148,99.4953
3944.6792,99.5375
3945.6433,99.5494
3946.6077,99.5496
3947.5718,99.5599
3948.5361,99.5885
3949.5002,99.6245
3950.4646,99.6465
3951.4287,99.6376
3952.3931,99.5955
3953.3572,99.5327
3954.3215,99.4703
3955.2856,99.4297
3956.2500,99.4246
3957.2141,99.4578
3958.1785,99.5219
3959.1426,99.603
3960.1069,99.684
3961.0710,99.7475
3962.0354,99.7803
3962.9995,99.7788
3963.9639,99.7498
3964.9280,99.7073
3965.8923,99.6651
3966.8564,99.6326
3967.8208,99.6121
3968.7849,99.6016
3969.7493,99.5989
3970.7134,99.6052
3971.6777,99.6237
3972.6418,99.6559
3973.6062,99.6974
3974.5703,99.7383
3975.5347,99.7681
3976.4988,99.781
3977.4631,99.7787
3978.4272,99.7677
3979.3916,99.7548
3980.3557,99.7432
3981.3201,99.7322
3982.2842,99.7188
3983.2485,99.7016
3984.2126,99.6821
3985.1770,99.6652
3986.1411,99.657
3987.1055,99.6626
3988.0696,99.684
3989.0339,99.7183
3989.9980,99.7579
3990.9624,99.7925
3991.9265,99.8138
3992.8909,99.8188
3993.8550,99.8113
3994.8193,99.7995
3995.7834,99.7907
3996.7478,99.7883
3997.7119,99.7903
3998.6763,99.7919
3999.6404,99.7895
4000.6047,99.9546

##### Extended Information
[Comments]
Sample name
Comment
User
Division
Company,HANKYONG

[Detailed Information]
Creation date,4/24/2024 3:44 PM

Data array type,Linear data array
Horizontal axis,Wavenumber [cm-1]
Vertical axis,%T
Start,649.893 cm-1
End,4000.6 cm-1
Data interval,0.964233 cm-1
Data points,3476    

[Measurement Information]
Model Name,FT/IR-4700typeA
Serial Number,D056761788

Accessory,ATR PRO ONE
Accessory S/N,C174761809
Incident angle,45 deg

Measurement Date,4/24/2024 3:43 PM

Light Source,Standard
Detector,TGS
Accumulation,32
Resolution,4 cm-1
Zero Filling,On
Apodization,Cosine
Gain,Auto (4)
Aperture,Auto (7.1 mm)
Scanning Speed,Auto (2 mm/sec)
Filter,Auto (30000 Hz)

