TITLE,
DATA TYPE,INFRARED SPECTRUM
ORIGIN,JASCO
OWNER,
DATE,24/04/24
TIME,11:11:41
SPECTROMETER/DATA SYSTEM,
LOCALE,1033
RESOLUTION,
DELTAX,0.964233
XUNITS,1/CM
YUNITS,TRANSMITTANCE
FIRSTX,  649.8934
LASTX, 4000.6047
NPOINTS,    3476
FIRSTY,    97.95873
MAXY,   100.59087
MINY,    51.88023
XYDATA
649.8934,97.9587
650.8576,97.78
651.8218,97.6121
652.7861,97.4812
653.7503,97.3858
654.7145,97.3179
655.6788,97.2639
656.6430,97.2087
657.6072,97.1424
658.5715,97.0686
659.5357,97.0061
660.4999,96.9766
661.4642,96.9831
662.4284,96.9975
663.3926,96.9673
664.3569,96.8304
665.3211,96.523
666.2853,95.9992
667.2496,95.3068
668.2138,94.6953
669.1780,94.4746
670.1423,94.6414
671.1065,94.9485
672.0707,95.2159
673.0350,95.3905
673.9992,95.485
674.9634,95.5357
675.9277,95.5839
676.8919,95.6631
677.8561,95.7889
678.8204,95.959
679.7846,96.16
680.7488,96.375
681.7131,96.5905
682.6773,96.8027
683.6415,97.0194
684.6058,97.2551
685.5700,97.516
686.5342,97.7874
687.4985,98.031
688.4627,98.1986
689.4269,98.2532
690.3912,98.1874
691.3554,98.0387
692.3196,97.8993
693.2839,97.8894
694.2481,98.07
695.2123,98.385
696.1766,98.7215
697.1408,98.9945
698.1050,99.1677
699.0693,99.2412
700.0335,99.2377
700.9977,99.1906
701.9620,99.1328
702.9262,99.0889
703.8904,99.0723
704.8547,99.084
705.8189,99.1138
706.7831,99.1436
707.7474,99.156
708.7116,99.1416
709.6758,99.103
710.6401,99.0497
711.6043,98.9894
712.5685,98.9203
713.5328,98.8306
714.4970,98.7334
715.4612,98.8293
716.4255,98.6458
717.3897,98.444
718.3539,98.2682
719.3182,98.1681
720.2824,98.1772
721.2466,98.2946
722.2109,98.4827
723.1751,98.6863
724.1393,98.8571
725.1036,98.9707
726.0678,99.0307
727.0320,99.0608
727.9963,99.0918
728.9605,99.1455
729.9247,99.226
730.8890,99.3201
731.8532,99.4064
732.8174,99.4663
733.7817,99.4918
734.7459,99.4859
735.7101,99.4555
736.6744,99.4032
737.6386,99.3231
738.6028,99.2042
739.5671,99.039
740.5313,98.8317
741.4955,98.5994
742.4598,98.3663
743.4240,98.1533
744.3882,97.9716
745.3525,97.8229
746.3167,97.7041
747.2809,97.6129
748.2452,97.5491
749.2094,97.511
750.1736,97.4928
751.1379,97.4846
752.1021,97.4772
753.0663,97.4669
754.0306,97.4572
754.9948,97.4547
755.9590,97.4631
756.9233,97.4786
757.8875,97.4906
758.8517,97.4879
759.8160,97.4648
760.7802,97.4254
761.7444,97.3811
762.7087,97.3459
763.6729,97.3314
764.6371,97.344
765.6014,97.3857
766.5656,97.4555
767.5298,97.5503
768.4941,97.6641
769.4583,97.7871
770.4225,97.9067
771.3868,98.0104
772.3510,98.0893
773.3152,98.1397
774.2795,98.1616
775.2437,98.1559
776.2079,98.122
777.1722,98.0589
778.1364,97.9675
779.1006,97.8532
780.0649,97.7251
781.0291,97.5941
781.9933,97.4704
782.9576,97.3624
783.9218,97.2766
784.8860,97.2165
785.8503,97.1797
786.8145,97.1562
787.7787,97.1294
788.7430,97.0827
789.7072,97.0079
790.6714,96.91
791.6357,96.8049
792.5999,96.7102
793.5641,96.6346
794.5284,96.5735
795.4926,96.5122
796.4568,96.4346
797.4211,96.3316
798.3853,96.2033
799.3495,96.0561
800.3138,95.897
801.2780,95.7304
802.2422,95.5565
803.2065,95.3732
804.1707,95.1776
805.1349,94.9669
806.0992,94.739
807.0634,94.4935
808.0276,94.232
808.9919,93.958
809.9561,93.6762
810.9203,93.3909
811.8846,93.1065
812.8488,92.8282
813.8130,92.5638
814.7773,92.3229
815.7415,92.1139
816.7057,91.9405
817.6700,91.7993
818.6342,91.6815
819.5984,91.5772
820.5627,91.4807
821.5269,91.3924
822.4911,91.3173
823.4554,91.2606
824.4196,91.2237
825.3839,91.2033
826.3481,91.1925
827.3123,91.1834
828.2766,91.1684
829.2408,91.14
830.2050,91.0894
831.1693,91.0071
832.1335,90.8847
833.0977,90.7177
834.0620,90.5076
835.0262,90.2614
835.9904,89.989
836.9547,89.6994
837.9189,89.399
838.8831,89.0908
839.8474,88.7759
840.8116,88.4556
841.7758,88.1324
842.7401,87.8122
843.7043,87.504
844.6685,87.2188
845.6328,86.9667
846.5970,86.7523
847.5612,86.5721
848.5255,86.4151
849.4897,86.2682
850.4539,86.1234
851.4182,85.9829
852.3824,85.8576
853.3466,85.7601
854.3109,85.6969
855.2751,85.6642
856.2393,85.6508
857.2036,85.6459
858.1678,85.645
859.1320,85.6514
860.0963,85.6721
861.0605,85.7124
862.0247,85.7737
862.9890,85.8564
863.9532,85.963
864.9174,86.0995
865.8817,86.2714
866.8459,86.4779
867.8101,86.7098
868.7744,86.9521
869.7386,87.1908
870.7028,87.4185
871.6671,87.6338
872.6313,87.8358
873.5955,88.0175
874.5598,88.1655
875.5240,88.2663
876.4882,88.3151
877.4525,88.3207
878.4167,88.3022
879.3809,88.2787
880.3452,88.2601
881.3094,88.2446
882.2736,88.2245
883.2379,88.1949
884.2021,88.1587
885.1663,88.1232
886.1306,88.0943
887.0948,88.0712
888.0590,88.049
889.0233,88.0252
889.9875,88.0051
890.9517,88.0017
891.9160,88.0276
892.8802,88.0873
893.8444,88.1734
894.8087,88.2697
895.7729,88.3594
896.7371,88.4312
897.7014,88.4819
898.6656,88.5143
899.6298,88.5338
900.5941,88.5462
901.5583,88.5554
902.5225,88.5627
903.4868,88.5655
904.4510,88.5571
905.4152,88.5294
906.3795,88.4771
907.3437,88.4015
908.3079,88.3109
909.2722,88.2184
910.2364,88.137
911.2006,88.0759
912.1649,88.0397
913.1291,88.03
914.0933,88.0482
915.0576,88.0968
916.0218,88.1796
916.9860,88.3006
917.9503,88.4622
918.9145,88.6639
919.8787,88.9021
920.8430,89.1717
921.8072,89.4667
922.7714,89.7825
923.7357,90.1157
924.6999,90.4633
925.6641,90.8225
926.6284,91.1913
927.5926,91.5707
928.5568,91.9666
929.5211,92.3906
930.4853,92.8563
931.4495,93.3743
932.4138,93.9484
933.3780,94.5733
934.3422,95.2363
935.3065,95.9198
936.2707,96.6032
937.2349,97.2638
938.1992,97.8779
939.1634,98.4245
940.1276,98.8895
941.0919,99.2694
942.0561,99.5707
943.0203,99.8053
943.9846,99.9837
944.9488,100.111
945.9130,100.186
946.8773,100.205
947.8415,100.169
948.8057,100.081
949.7700,99.9533
950.7342,99.8193
951.6984,99.7347
952.6627,99.6338
953.6269,99.5153
954.5911,99.3725
955.5554,99.1961
956.5196,98.9761
957.4838,98.7056
958.4481,98.3819
959.4123,98.0076
960.3765,97.5891
961.3408,97.1348
962.3050,96.6533
963.2692,96.1534
964.2335,95.6446
965.1977,95.1376
966.1619,94.6436
967.1262,94.1727
968.0904,93.7315
969.0546,93.3227
970.0189,92.9457
970.9831,92.5981
971.9473,92.2772
972.9116,91.9801
973.8758,91.7042
974.8400,91.4459
975.8043,91.2006
976.7685,90.9621
977.7327,90.723
978.6970,90.4746
979.6612,90.2075
980.6254,89.9122
981.5897,89.5806
982.5539,89.2066
983.5181,88.7867
984.4824,88.3208
985.4466,87.8141
986.4108,87.2789
987.3751,86.7359
988.3393,86.2125
989.3035,85.7379
990.2678,85.3353
991.2320,85.0159
992.1962,84.7758
993.1605,84.5986
994.1247,84.461
995.0889,84.3409
996.0532,84.2215
997.0174,84.093
997.9816,83.9503
998.9459,83.7901
999.9101,83.6076
1000.8743,83.3951
1001.8386,83.1414
1002.8028,82.8324
1003.7670,82.4524
1004.7313,81.9862
1005.6955,81.4218
1006.6597,80.7527
1007.6240,79.9793
1008.5882,79.1078
1009.5524,78.1476
1010.5167,77.1093
1011.4809,76.0023
1012.4451,74.8354
1013.4094,73.6162
1014.3736,72.3516
1015.3378,71.0491
1016.3021,69.7181
1017.2663,68.372
1018.2305,67.0277
1019.1948,65.7012
1020.1590,64.3998
1021.1232,63.1163
1022.0875,61.8328
1023.0517,60.5335
1024.0160,59.2228
1024.9802,57.9359
1025.9445,56.7321
1026.9087,55.6732
1027.8729,54.7966
1028.8372,54.1002
1029.8014,53.548
1030.7656,53.0921
1031.7299,52.6982
1032.6941,52.3595
1033.6583,52.0932
1034.6226,51.9265
1035.5868,51.8802
1036.5510,51.9598
1037.5153,52.1542
1038.4795,52.4399
1039.4437,52.787
1040.4080,53.1651
1041.3722,53.5502
1042.3364,53.9302
1043.3007,54.3072
1044.2649,54.6941
1045.2291,55.1073
1046.1934,55.5599
1047.1576,56.0591
1048.1218,56.6096
1049.0861,57.2163
1050.0503,57.8844
1051.0145,58.6142
1051.9788,59.3965
1052.9430,60.2141
1053.9072,61.0515
1054.8715,61.9069
1055.8357,62.7971
1056.7999,63.7471
1057.7642,64.767
1058.7284,65.8294
1059.6926,66.8631
1060.6569,67.7735
1061.6211,68.4831
1062.5853,68.9722
1063.5496,69.2953
1064.5138,69.5609
1065.4780,69.8814
1066.4423,70.3199
1067.4065,70.8616
1068.3707,71.4244
1069.3350,71.9026
1070.2992,72.216
1071.2634,72.3397
1072.2277,72.3011
1073.1919,72.1553
1074.1561,71.9543
1075.1204,71.7303
1076.0846,71.495
1077.0488,71.2499
1078.0131,70.9958
1078.9773,70.7368
1079.9415,70.4792
1080.9058,70.2282
1081.8700,69.9874
1082.8342,69.7583
1083.7985,69.5412
1084.7627,69.3367
1085.7269,69.1469
1086.6912,68.9788
1087.6554,68.8433
1088.6196,68.7515
1089.5839,68.7064
1090.5481,68.6968
1091.5123,68.698
1092.4766,68.6799
1093.4408,68.6197
1094.4050,68.5101
1095.3693,68.3592
1096.3335,68.1832
1097.2977,67.9965
1098.2620,67.8067
1099.2262,67.6163
1100.1904,67.4269
1101.1547,67.2446
1102.1189,67.0788
1103.0831,66.9401
1104.0474,66.837
1105.0116,66.7754
1105.9758,66.7617
1106.9401,66.8056
1107.9043,66.9213
1108.8685,67.1255
1109.8328,67.4334
1110.7970,67.8561
1111.7612,68.4003
1112.7255,69.0695
1113.6897,69.866
1114.6539,70.7909
1115.6182,71.8433
1116.5824,73.0182
1117.5466,74.3066
1118.5109,75.6963
1119.4751,77.1738
1120.4393,78.7249
1121.4036,80.3354
1122.3678,81.9897
1123.3320,83.6705
1124.2963,85.3575
1125.2605,87.0282
1126.2247,88.6583
1127.1890,90.2234
1128.1532,91.7018
1129.1174,93.0769
1130.0817,94.3387
1131.0459,95.4821
1132.0101,96.5046
1132.9744,97.4026
1133.9386,98.1707
1134.9028,98.8041
1135.8671,99.3009
1136.8313,99.665
1137.7955,99.9048
1138.7598,100.031
1139.7240,100.052
1140.6882,99.9762
1141.6525,99.8091
1142.6167,99.5372
1143.5809,99.11
1144.5452,98.6379
1145.5094,98.1465
1146.4736,97.6618
1147.4379,97.2074
1148.4021,96.8018
1149.3663,96.458
1150.3306,96.1834
1151.2948,95.9803
1152.2590,95.8453
1153.2233,95.7695
1154.1875,95.7383
1155.1517,95.7328
1156.1160,95.7323
1157.0802,95.7166
1158.0444,95.6679
1159.0087,95.5718
1159.9729,95.418
1160.9371,95.2003
1161.9014,94.9186
1162.8656,94.5789
1163.8298,94.1921
1164.7941,93.7713
1165.7583,93.3275
1166.7225,92.868
1167.6868,92.3959
1168.6510,91.9123
1169.6152,91.4181
1170.5795,90.9141
1171.5437,90.4001
1172.5079,89.8746
1173.4722,89.3346
1174.4364,88.7777
1175.4006,88.204
1176.3649,87.6162
1177.3291,87.0184
1178.2933,86.4133
1179.2576,85.8019
1180.2218,85.1839
1181.1860,84.5601
1182.1503,83.934
1183.1145,83.3124
1184.0787,82.7034
1185.0430,82.1137
1186.0072,81.5468
1186.9714,81.0027
1187.9357,80.4788
1188.8999,79.9726
1189.8641,79.4819
1190.8284,79.0051
1191.7926,78.54
1192.7568,78.0833
1193.7211,77.6311
1194.6853,77.1808
1195.6495,76.7322
1196.6138,76.2883
1197.5780,75.8535
1198.5422,75.4314
1199.5065,75.0555
1200.4707,74.6576
1201.4349,74.2721
1202.3992,73.8994
1203.3634,73.5422
1204.3276,73.2056
1205.2919,72.8951
1206.2561,72.6159
1207.2203,72.3718
1208.1846,72.1657
1209.1488,72.0002
1210.1130,71.8773
1211.0773,71.7981
1212.0415,71.7611
1213.0057,71.7628
1213.9700,71.7989
1214.9342,71.8667
1215.8984,71.9657
1216.8627,72.0978
1217.8269,72.2642
1218.7911,72.4626
1219.7554,72.6869
1220.7196,72.9286
1221.6838,73.1793
1222.6481,73.4326
1223.6123,73.6835
1224.5765,73.927
1225.5408,74.157
1226.5050,74.3667
1227.4692,74.5495
1228.4335,74.7006
1229.3977,74.8177
1230.3619,74.9027
1231.3262,74.9625
1232.2904,75.0105
1233.2546,75.0639
1234.2189,75.138
1235.1831,75.2393
1236.1473,75.3623
1237.1116,75.4947
1238.0758,75.6284
1239.0400,75.7691
1240.0043,75.9379
1240.9685,76.1588
1241.9327,76.4419
1242.8970,76.7709
1243.8612,77.1062
1244.8254,77.402
1245.7897,77.628
1246.7539,77.7813
1247.7181,77.8824
1248.6824,77.9593
1249.6466,78.0311
1250.6108,78.0998
1251.5751,78.1538
1252.5393,78.1776
1253.5035,78.1598
1254.4678,78.0975
1255.4320,77.995
1256.3962,77.8607
1257.3605,77.7052
1258.3247,77.5401
1259.2889,77.3775
1260.2532,77.2278
1261.2174,77.0978
1262.1816,76.9902
1263.1459,76.9039
1264.1101,76.8369
1265.0743,76.7876
1266.0386,76.7561
1267.0028,76.7446
1267.9670,76.7563
1268.9313,76.7958
1269.8955,76.8681
1270.8597,76.9768
1271.8240,77.1232
1272.7882,77.305
1273.7524,77.5177
1274.7167,77.7558
1275.6809,78.0153
1276.6451,78.2936
1277.6094,78.5896
1278.5736,78.902
1279.5378,79.2273
1280.5021,79.5593
1281.4663,79.8902
1282.4305,80.213
1283.3948,80.524
1284.3590,80.8237
1285.3232,81.1163
1286.2875,81.4063
1287.2517,81.6965
1288.2159,81.9859
1289.1802,82.2704
1290.1444,82.5455
1291.1086,82.8083
1292.0729,83.0596
1293.0371,83.3032
1294.0013,83.5442
1294.9656,83.787
1295.9298,84.033
1296.8940,84.2801
1297.8583,84.5225
1298.8225,84.7525
1299.7867,84.9623
1300.7510,85.1461
1301.7152,85.3004
1302.6794,85.4249
1303.6437,85.522
1304.6079,85.5946
1305.5721,85.6449
1306.5364,85.6738
1307.5006,85.681
1308.4648,85.6665
1309.4291,85.6319
1310.3933,85.5813
1311.3575,85.5199
1312.3218,85.4525
1313.2860,85.3817
1314.2502,85.3075
1315.2145,85.2294
1316.1787,85.1489
1317.1429,85.071
1318.1072,85.0016
1319.0714,84.9441
1320.0356,84.8952
1320.9999,84.8469
1321.9641,84.7906
1322.9283,84.7231
1323.8926,84.6485
1324.8568,84.5761
1325.8210,84.5174
1326.7853,84.4819
1327.7495,84.4757
1328.7137,84.5019
1329.6780,84.5621
1330.6422,84.6563
1331.6064,84.7803
1332.5707,84.924
1333.5349,85.0725
1334.4991,85.2118
1335.4634,85.3359
1336.4276,85.4524
1337.3918,85.5838
1338.3561,85.7582
1339.3203,85.9866
1340.2845,86.2468
1341.2488,86.4944
1342.2130,86.693
1343.1772,86.8296
1344.1415,86.909
1345.1057,86.9434
1346.0699,86.9451
1347.0342,86.9251
1347.9984,86.8921
1348.9626,86.8509
1349.9269,86.8019
1350.8911,86.7432
1351.8553,86.6739
1352.8196,86.5969
1353.7838,86.5186
1354.7480,86.4459
1355.7123,86.3802
1356.6765,86.3161
1357.6407,86.2451
1358.6050,86.1622
1359.5692,86.0713
1360.5334,85.9891
1361.4977,85.9413
1362.4619,85.944
1363.4261,85.9845
1364.3904,86.0307
1365.3546,86.0595
1366.3188,86.0681
1367.2831,86.0651
1368.2473,86.0562
1369.2115,86.0394
1370.1758,86.0075
1371.1400,85.9566
1372.1042,85.8943
1373.0685,85.8417
1374.0327,85.8246
1374.9969,85.8535
1375.9612,85.9139
1376.9254,85.9824
1377.8896,86.0485
1378.8539,86.1175
1379.8181,86.1992
1380.7823,86.2951
1381.7466,86.3976
1382.7108,86.4996
1383.6750,86.6054
1384.6393,86.7328
1385.6035,86.9011
1386.5677,87.1049
1387.5320,87.2902
1388.4962,87.3736
1389.4604,87.3025
1390.4247,87.0865
1391.3889,86.7791
1392.3531,86.4529
1393.3174,86.189
1394.2816,86.0604
1395.2458,86.0926
1396.2101,86.23
1397.1743,86.3621
1398.1385,86.3945
1399.1028,86.2955
1400.0670,86.0882
1401.0313,85.8153
1401.9955,85.5137
1402.9597,85.2072
1403.9240,84.9127
1404.8882,84.6459
1405.8524,84.4174
1406.8167,84.2268
1407.7809,84.0645
1408.7451,83.9208
1409.7094,83.7891
1410.6736,83.6632
1411.6378,83.5342
1412.6021,83.3931
1413.5663,83.2358
1414.5305,83.0633
1415.4948,82.8749
1416.4590,82.6647
1417.4232,82.4315
1418.3875,82.1874
1419.3517,81.9406
1420.3159,81.6784
1421.2802,81.3918
1422.2444,81.0956
1423.2086,80.8163
1424.1729,80.5748
1425.1371,80.3793
1426.1013,80.2297
1427.0656,80.1268
1428.0298,80.078
1428.9940,80.093
1429.9583,80.1704
1430.9225,80.2909
1431.8867,80.43
1432.8510,80.5768
1433.8152,80.7334
1434.7794,80.9005
1435.7437,81.0618
1436.7079,81.1718
1437.6721,81.1666
1438.6364,81.0136
1439.6006,80.737
1440.5648,80.3864
1441.5291,79.9981
1442.4933,79.5863
1443.4575,79.1513
1444.4218,78.6897
1445.3860,78.2008
1446.3502,77.6909
1447.3145,77.177
1448.2787,76.6837
1449.2429,76.2322
1450.2072,75.8335
1451.1714,75.4932
1452.1356,75.2167
1453.0999,75.0019
1454.0641,74.8286
1455.0283,74.6659
1455.9926,74.529
1456.9568,74.5127
1457.9210,74.62
1458.8853,74.6848
1459.8495,74.6321
1460.8137,74.5365
1461.7780,74.5063
1462.7422,74.64
1463.7064,75.0233
1464.6707,75.6814
1465.6349,76.5094
1466.5991,77.3306
1467.5634,78.0517
1468.5276,78.7046
1469.4918,79.3772
1470.4561,80.1602
1471.4203,81.1286
1472.3845,82.296
1473.3488,83.5212
1474.3130,84.5498
1475.2772,85.2409
1476.2415,85.6335
1477.2057,85.8267
1478.1699,85.8987
1479.1342,85.9035
1480.0984,85.8861
1481.0626,85.8862
1482.0269,85.9262
1482.9911,86.0028
1483.9553,86.0925
1484.9196,86.1657
1485.8838,86.1968
1486.8480,86.1739
1487.8123,86.1212
1488.7765,86.1019
1489.7407,86.1456
1490.7050,86.1886
1491.6692,86.1571
1492.6334,86.042
1493.5977,85.8673
1494.5619,85.6453
1495.5261,85.3735
1496.4904,85.0638
1497.4546,84.7558
1498.4188,84.4728
1499.3831,84.1963
1500.3473,83.9173
1501.3115,83.6657
1502.2758,83.4757
1503.2400,83.3404
1504.2042,83.174
1505.1685,82.8073
1506.1327,82.1195
1507.0969,81.3224
1508.0612,80.7646
1509.0254,80.3949
1509.9896,80.0317
1510.9539,79.6377
1511.9181,79.2533
1512.8823,78.9407
1513.8466,78.7832
1514.8108,78.875
1515.7750,79.2757
1516.7393,79.969
1517.7035,80.8982
1518.6677,82.0596
1519.6320,83.5306
1520.5962,85.3494
1521.5604,87.351
1522.5247,89.2188
1523.4889,90.7567
1524.4531,92.0202
1525.4174,93.1757
1526.3816,94.3058
1527.3458,95.3558
1528.3101,96.2287
1529.2743,96.8927
1530.2385,97.4008
1531.2028,97.8474
1532.1670,98.3138
1533.1312,98.8111
1534.0955,99.268
1535.0597,99.6128
1536.0239,99.8481
1536.9882,100.01
1537.9524,100.084
1538.9166,99.9939
1539.8809,99.7569
1540.8451,99.647
1541.8093,99.8432
1542.7736,100.149
1543.7378,100.386
1544.7020,100.528
1545.6663,100.591
1546.6305,100.583
1547.5947,100.519
1548.5590,100.422
1549.5232,100.311
1550.4874,100.189
1551.4517,100.045
1552.4159,99.9134
1553.3801,99.7826
1554.3444,99.6869
1555.3086,99.6397
1556.2728,99.604
1557.2371,99.5367
1558.2013,99.5148
1559.1655,99.5919
1560.1298,99.5162
1561.0940,99.154
1562.0582,98.6523
1563.0225,98.1755
1563.9867,97.798
1564.9509,97.5197
1565.9152,97.2968
1566.8794,97.0667
1567.8436,96.7787
1568.8079,96.4251
1569.7721,96.0421
1570.7363,95.6736
1571.7006,95.3437
1572.6648,95.0469
1573.6290,94.7365
1574.5933,94.3366
1575.5575,93.8094
1576.5217,93.2235
1577.4860,92.6799
1578.4502,92.1955
1579.4144,91.735
1580.3787,91.2715
1581.3429,90.7891
1582.3071,90.2792
1583.2714,89.7462
1584.2356,89.2058
1585.1998,88.6714
1586.1641,88.146
1587.1283,87.6279
1588.0925,87.1194
1589.0568,86.6283
1590.0210,86.1618
1590.9852,85.722
1591.9495,85.308
1592.9137,84.9226
1593.8779,84.5743
1594.8422,84.2719
1595.8064,84.0153
1596.7706,83.7931
1597.7349,83.5901
1598.6991,83.3961
1599.6633,83.2104
1600.6276,83.0402
1601.5918,82.8954
1602.5560,82.7815
1603.5203,82.6954
1604.4845,82.6275
1605.4487,82.5707
1606.4130,82.5288
1607.3772,82.5196
1608.3414,82.5655
1609.3057,82.6738
1610.2699,82.8264
1611.2341,82.9988
1612.1984,83.1883
1613.1626,83.4227
1614.1268,83.7575
1615.0911,84.2642
1616.0553,84.9676
1617.0195,85.7437
1617.9838,86.383
1618.9480,86.8075
1619.9122,87.1082
1620.8765,87.4185
1621.8407,87.8226
1622.8049,88.3245
1623.7692,88.8548
1624.7334,89.3264
1625.6976,89.7079
1626.6619,90.0316
1627.6261,90.3372
1628.5903,90.6279
1629.5546,90.8821
1630.5188,91.0934
1631.4830,91.2811
1632.4473,91.4619
1633.4115,91.6222
1634.3757,91.7401
1635.3400,91.8478
1636.3042,91.9961
1637.2684,92.1341
1638.2327,92.1864
1639.1969,92.1659
1640.1611,92.1303
1641.1254,92.1224
1642.0896,92.1535
1643.0538,92.2005
1644.0181,92.2048
1644.9823,92.1032
1645.9465,91.9077
1646.9108,91.7306
1647.8750,91.6652
1648.8392,91.7252
1649.8035,91.8958
1650.7677,92.1272
1651.7319,92.3103
1652.6962,92.3585
1653.6604,92.2898
1654.6246,92.0759
1655.5889,91.6932
1656.5531,91.2592
1657.5173,90.9004
1658.4816,90.6595
1659.4458,90.5042
1660.4100,90.3688
1661.3743,90.2062
1662.3385,90.0159
1663.3027,89.8207
1664.2670,89.6357
1665.2312,89.4652
1666.1954,89.2992
1667.1597,89.1074
1668.1239,88.8615
1669.0881,88.5815
1670.0524,88.3377
1671.0166,88.1769
1671.9808,88.0871
1672.9451,88.0342
1673.9093,87.9818
1674.8735,87.8841
1675.8378,87.6961
1676.8020,87.4062
1677.7662,87.058
1678.7305,86.7304
1679.6947,86.4882
1680.6589,86.3415
1681.6232,86.2351
1682.5874,86.0872
1683.5516,85.8707
1684.5159,85.6116
1685.4801,85.2931
1686.4443,84.8959
1687.4086,84.4588
1688.3728,84.0392
1689.3370,83.6764
1690.3013,83.3858
1691.2655,83.1598
1692.2297,82.9656
1693.1940,82.7477
1694.1582,82.4448
1695.1224,82.0286
1696.0867,81.5471
1697.0509,81.1228
1698.0151,80.8638
1698.9794,80.7472
1699.9436,80.6258
1700.9078,80.3743
1701.8721,79.995
1702.8363,79.5824
1703.8005,79.2391
1704.7648,79.0261
1705.7290,78.9502
1706.6932,78.9711
1707.6575,79.0269
1708.6217,79.0741
1709.5859,79.1069
1710.5502,79.1435
1711.5144,79.2009
1712.4786,79.2834
1713.4429,79.3887
1714.4071,79.5345
1715.3713,79.7945
1716.3356,80.2767
1717.2998,80.9511
1718.2640,81.5724
1719.2283,81.9534
1720.1925,82.1346
1721.1567,82.2578
1722.1210,82.4322
1723.0852,82.6954
1724.0494,83.0247
1725.0137,83.3682
1725.9779,83.68
1726.9421,83.944
1727.9064,84.1749
1728.8706,84.404
1729.8348,84.6657
1730.7991,84.9936
1731.7633,85.4244
1732.7275,85.9802
1733.6918,86.5953
1734.6560,87.0992
1735.6202,87.3832
1736.5845,87.5108
1737.5487,87.6225
1738.5129,87.8206
1739.4772,88.1296
1740.4414,88.5054
1741.4056,88.8732
1742.3699,89.1801
1743.3341,89.4243
1744.2983,89.6399
1745.2626,89.8627
1746.2268,90.1159
1747.1910,90.4209
1748.1553,90.8098
1749.1195,91.3023
1750.0837,91.8474
1751.0480,92.3257
1752.0122,92.652
1752.9764,92.8384
1753.9407,92.9565
1754.9049,93.0738
1755.8691,93.2222
1756.8334,93.3987
1757.7976,93.5849
1758.7618,93.7691
1759.7261,93.956
1760.6903,94.1562
1761.6545,94.3676
1762.6188,94.5687
1763.5830,94.7367
1764.5472,94.8692
1765.5115,94.9832
1766.4757,95.0964
1767.4399,95.2118
1768.4042,95.3194
1769.3684,95.4127
1770.3326,95.512
1771.2969,95.6657
1772.2611,95.9017
1773.2253,96.1742
1774.1896,96.403
1775.1538,96.5603
1776.1180,96.6813
1777.0823,96.8158
1778.0465,96.9907
1779.0107,97.2027
1779.9750,97.4312
1780.9392,97.6549
1781.9034,97.8624
1782.8677,98.0497
1783.8319,98.211
1784.7961,98.3347
1785.7604,98.4133
1786.7246,98.4563
1787.6888,98.4877
1788.6531,98.5281
1789.6173,98.5799
1790.5815,98.6324
1791.5458,98.6819
1792.5100,98.7297
1793.4742,98.7606
1794.4385,98.7586
1795.4027,98.7379
1796.3669,98.7314
1797.3312,98.76
1798.2954,98.8219
1799.2596,98.9033
1800.2239,98.9901
1801.1881,99.0712
1802.1523,99.1367
1803.1166,99.1809
1804.0808,99.2057
1805.0450,99.2172
1806.0093,99.2202
1806.9735,99.217
1807.9377,99.2102
1808.9020,99.2074
1809.8662,99.2205
1810.8304,99.2562
1811.7947,99.3088
1812.7589,99.364
1813.7231,99.4236
1814.6874,99.482
1815.6516,99.5295
1816.6158,99.566
1817.5801,99.5915
1818.5443,99.6078
1819.5085,99.62
1820.4728,99.6357
1821.4370,99.6601
1822.4012,99.6916
1823.3655,99.7226
1824.3297,99.7429
1825.2939,99.745
1826.2582,99.729
1827.2224,99.7057
1828.1866,99.6949
1829.1509,99.7153
1830.1151,99.7667
1831.0793,99.8223
1832.0436,99.8516
1833.0078,99.8493
1833.9720,99.8325
1834.9363,99.8193
1835.9005,99.8159
1836.8647,99.8197
1837.8290,99.828
1838.7932,99.8448
1839.7574,99.88
1840.7217,99.9372
1841.6859,100.003
1842.6501,100.053
1843.6144,100.073
1844.5786,100.067
1845.5428,100.042
1846.5071,100.006
1847.4713,99.9759
1848.4355,99.967
1849.3998,99.9837
1850.3640,100.015
1851.3282,100.044
1852.2925,100.06
1853.2567,100.063
1854.2209,100.059
1855.1852,100.054
1856.1494,100.049
1857.1136,100.046
1858.0779,100.044
1859.0421,100.047
1860.0063,100.053
1860.9706,100.056
1861.9348,100.049
1862.8990,100.025
1863.8633,99.9872
1864.8275,99.9399
1865.7917,99.8913
1866.7560,99.8569
1867.7202,99.8631
1868.6844,99.9254
1869.6487,100.019
1870.6129,100.095
1871.5771,100.129
1872.5414,100.132
1873.5056,100.125
1874.4698,100.123
1875.4341,100.124
1876.3983,100.126
1877.3625,100.126
1878.3268,100.124
1879.2910,100.121
1880.2552,100.118
1881.2195,100.113
1882.1837,100.104
1883.1479,100.089
1884.1122,100.073
1885.0764,100.06
1886.0406,100.055
1887.0049,100.06
1887.9691,100.072
1888.9333,100.086
1889.8976,100.095
1890.8618,100.09
1891.8260,100.071
1892.7903,100.044
1893.7545,100.022
1894.7188,100.013
1895.6830,100.021
1896.6472,100.04
1897.6115,100.06
1898.5757,100.073
1899.5399,100.075
1900.5042,100.07
1901.4684,100.062
1902.4326,100.051
1903.3969,100.038
1904.3611,100.018
1905.3253,99.9895
1906.2896,99.9545
1907.2538,99.9204
1908.2180,99.8974
1909.1823,99.8928
1910.1465,99.9048
1911.1107,99.9233
1912.0750,99.9388
1913.0392,99.9501
1914.0034,99.9616
1914.9677,99.9765
1915.9319,99.9922
1916.8961,100.001
1917.8604,99.9931
1918.8246,99.9627
1919.7888,99.9137
1920.7531,99.8606
1921.7173,99.8226
1922.6815,99.8119
1923.6458,99.8273
1924.6100,99.8556
1925.5742,99.8807
1926.5385,99.8943
1927.5027,99.8968
1928.4669,99.8931
1929.4312,99.8872
1930.3954,99.8814
1931.3596,99.8765
1932.3239,99.8734
1933.2881,99.8733
1934.2523,99.8766
1935.2166,99.8812
1936.1808,99.8834
1937.1450,99.8801
1938.1093,99.8703
1939.0735,99.8546
1940.0377,99.8343
1941.0020,99.8129
1941.9662,99.7964
1942.9304,99.7902
1943.8947,99.7944
1944.8589,99.8054
1945.8231,99.8206
1946.7874,99.839
1947.7516,99.8593
1948.7158,99.8781
1949.6801,99.8914
1950.6443,99.8973
1951.6085,99.8974
1952.5728,99.8955
1953.5370,99.8958
1954.5012,99.9002
1955.4655,99.9083
1956.4297,99.9181
1957.3939,99.928
1958.3582,99.9374
1959.3224,99.9455
1960.2866,99.951
1961.2509,99.9518
1962.2151,99.9459
1963.1793,99.9339
1964.1436,99.9192
1965.1078,99.9081
1966.0720,99.9075
1967.0363,99.9208
1968.0005,99.9451
1968.9647,99.9725
1969.9290,99.9952
1970.8932,100.01
1971.8574,100.017
1972.8217,100.02
1973.7859,100.02
1974.7501,100.021
1975.7144,100.021
1976.6786,100.023
1977.6428,100.024
1978.6071,100.026
1979.5713,100.028
1980.5355,100.029
1981.4998,100.029
1982.4640,100.028
1983.4282,100.025
1984.3925,100.021
1985.3567,100.014
1986.3209,100.004
1987.2852,99.992
1988.2494,99.9801
1989.2136,99.9707
1990.1779,99.9669
1991.1421,99.9708
1992.1063,99.9816
1993.0706,99.9945
1994.0348,100.004
1994.9990,100.006
1995.9633,100.002
1996.9275,99.9952
1997.8917,99.9901
1998.8560,99.989
1999.8202,99.9924
2000.7844,99.9986
2001.7487,100.004
2002.7129,100.007
2003.6771,100.005
2004.6414,99.9978
2005.6056,99.9874
2006.5698,99.9762
2007.5341,99.9666
2008.4983,99.9603
2009.4625,99.957
2010.4268,99.955
2011.3910,99.9511
2012.3552,99.9429
2013.3195,99.9294
2014.2837,99.9123
2015.2479,99.8961
2016.2122,99.8859
2017.1764,99.8851
2018.1406,99.8926
2019.1049,99.9034
2020.0691,99.9118
2021.0333,99.9146
2021.9976,99.9118
2022.9618,99.906
2023.9260,99.9004
2024.8903,99.8965
2025.8545,99.8944
2026.8187,99.8924
2027.7830,99.8891
2028.7472,99.8842
2029.7114,99.8784
2030.6757,99.8731
2031.6399,99.8692
2032.6041,99.867
2033.5684,99.8661
2034.5326,99.8653
2035.4968,99.8629
2036.4611,99.8576
2037.4253,99.8487
2038.3895,99.8368
2039.3538,99.8242
2040.3180,99.8144
2041.2822,99.81
2042.2465,99.8116
2043.2107,99.8169
2044.1749,99.8222
2045.1392,99.8242
2046.1034,99.8216
2047.0676,99.8155
2048.0320,99.808
2048.9961,99.8015
2049.9604,99.797
2050.9246,99.7944
2051.8889,99.7923
2052.8530,99.7893
2053.8174,99.7845
2054.7815,99.7781
2055.7458,99.771
2056.7100,99.7646
2057.6743,99.7594
2058.6384,99.755
2059.6028,99.7495
2060.5669,99.7413
2061.5313,99.7299
2062.4954,99.7173
2063.4597,99.7071
2064.4238,99.7028
2065.3882,99.7061
2066.3523,99.7155
2067.3167,99.7274
2068.2808,99.7385
2069.2451,99.747
2070.2092,99.7527
2071.1736,99.7566
2072.1377,99.7597
2073.1021,99.7619
2074.0662,99.7629
2075.0305,99.7624
2075.9946,99.7607
2076.9590,99.7587
2077.9231,99.7573
2078.8875,99.7566
2079.8516,99.7565
2080.8159,99.7561
2081.7800,99.7551
2082.7444,99.7534
2083.7085,99.7516
2084.6729,99.7505
2085.6370,99.751
2086.6013,99.753
2087.5654,99.7561
2088.5298,99.7594
2089.4939,99.7617
2090.4583,99.7627
2091.4224,99.7625
2092.3867,99.7621
2093.3508,99.7624
2094.3152,99.7638
2095.2793,99.7659
2096.2437,99.7676
2097.2078,99.7675
2098.1721,99.7646
2099.1362,99.7594
2100.1006,99.7521
2101.0647,99.7471
2102.0291,99.7446
2102.9932,99.7452
2103.9575,99.7483
2104.9216,99.7519
2105.8860,99.7542
2106.8501,99.7538
2107.8145,99.75
2108.7786,99.7434
2109.7429,99.7352
2110.7070,99.7266
2111.6714,99.7194
2112.6355,99.7151
2113.5999,99.7146
2114.5640,99.7182
2115.5283,99.7246
2116.4924,99.7316
2117.4568,99.7365
2118.4209,99.7374
2119.3853,99.734
2120.3494,99.7275
2121.3137,99.7201
2122.2778,99.7137
2123.2422,99.7094
2124.2063,99.7072
2125.1707,99.7065
2126.1348,99.7067
2127.0991,99.708
2128.0632,99.7106
2129.0276,99.7145
2129.9917,99.7187
2130.9561,99.7214
2131.9202,99.7211
2132.8845,99.7175
2133.8486,99.7119
2134.8130,99.7073
2135.7771,99.7067
2136.7415,99.7115
2137.7056,99.7211
2138.6699,99.7328
2139.6340,99.7432
2140.5984,99.7502
2141.5625,99.7538
2142.5269,99.7555
2143.4910,99.7578
2144.4553,99.7621
2145.4194,99.7683
2146.3838,99.7753
2147.3479,99.7815
2148.3123,99.7859
2149.2764,99.7886
2150.2407,99.7903
2151.2048,99.7917
2152.1692,99.7932
2153.1333,99.7948
2154.0977,99.7964
2155.0618,99.798
2156.0261,99.8001
2156.9902,99.8032
2157.9546,99.8077
2158.9187,99.8135
2159.8831,99.82
2160.8472,99.8266
2161.8115,99.8326
2162.7756,99.8379
2163.7400,99.8422
2164.7041,99.8453
2165.6685,99.8469
2166.6326,99.8468
2167.5969,99.8453
2168.5610,99.8432
2169.5254,99.8414
2170.4895,99.8409
2171.4539,99.8416
2172.4180,99.843
2173.3823,99.8443
2174.3464,99.845
2175.3108,99.8452
2176.2749,99.8454
2177.2393,99.846
2178.2034,99.8471
2179.1677,99.8477
2180.1318,99.847
2181.0962,99.8441
2182.0603,99.8391
2183.0247,99.8333
2183.9888,99.8287
2184.9531,99.8269
2185.9172,99.829
2186.8816,99.8344
2187.8457,99.8415
2188.8101,99.8484
2189.7742,99.8536
2190.7385,99.8567
2191.7026,99.8578
2192.6670,99.8577
2193.6311,99.857
2194.5955,99.8563
2195.5596,99.8559
2196.5239,99.8555
2197.4880,99.8545
2198.4524,99.8522
2199.4165,99.8481
2200.3809,99.8426
2201.3450,99.8371
2202.3093,99.8337
2203.2734,99.8336
2204.2378,99.837
2205.2019,99.8424
2206.1663,99.8478
2207.1304,99.8516
2208.0947,99.853
2209.0588,99.8522
2210.0232,99.8497
2210.9873,99.8456
2211.9517,99.84
2212.9158,99.8333
2213.8801,99.8264
2214.8442,99.8208
2215.8086,99.8173
2216.7727,99.8156
2217.7371,99.8142
2218.7012,99.8118
2219.6655,99.8076
2220.6296,99.8028
2221.5940,99.7994
2222.5581,99.7991
2223.5225,99.8019
2224.4866,99.8057
2225.4509,99.8074
2226.4150,99.8041
2227.3794,99.7955
2228.3435,99.7828
2229.3079,99.7685
2230.2720,99.7548
2231.2363,99.7428
2232.2004,99.7325
2233.1648,99.7234
2234.1289,99.7154
2235.0933,99.7084
2236.0574,99.7028
2237.0217,99.6984
2237.9858,99.6944
2238.9502,99.6895
2239.9143,99.6827
2240.8787,99.6735
2241.8428,99.6619
2242.8071,99.6488
2243.7712,99.6354
2244.7356,99.6226
2245.6997,99.6114
2246.6641,99.6019
2247.6282,99.5933
2248.5925,99.5846
2249.5566,99.5746
2250.5210,99.5626
2251.4851,99.549
2252.4495,99.5346
2253.4136,99.5205
2254.3779,99.5071
2255.3420,99.4939
2256.3064,99.4804
2257.2705,99.466
2258.2349,99.4508
2259.1990,99.4351
2260.1633,99.4194
2261.1274,99.4045
2262.0918,99.3909
2263.0559,99.3798
2264.0203,99.3717
2264.9844,99.3666
2265.9487,99.3631
2266.9128,99.3588
2267.8772,99.3513
2268.8413,99.3399
2269.8057,99.3258
2270.7698,99.312
2271.7341,99.3015
2272.6982,99.2957
2273.6626,99.2941
2274.6267,99.2948
2275.5911,99.2968
2276.5552,99.3001
2277.5195,99.3057
2278.4836,99.3143
2279.4480,99.3249
2280.4121,99.3346
2281.3765,99.3397
2282.3406,99.337
2283.3049,99.3246
2284.2690,99.3027
2285.2334,99.2731
2286.1975,99.2384
2287.1619,99.2012
2288.1260,99.1634
2289.0903,99.1255
2290.0544,99.0868
2291.0188,99.0473
2291.9829,99.0084
2292.9473,98.9731
2293.9114,98.9451
2294.8757,98.9269
2295.8398,98.9185
2296.8042,98.918
2297.7683,98.9236
2298.7327,98.9355
2299.6968,98.9563
2300.6611,98.9879
2301.6252,99.0295
2302.5896,99.0751
2303.5537,99.1153
2304.5181,99.1413
2305.4822,99.1497
2306.4465,99.1462
2307.4106,99.1437
2308.3750,99.1575
2309.3391,99.1973
2310.3035,99.2622
2311.2676,99.3403
2312.2319,99.4152
2313.1960,99.4749
2314.1604,99.5176
2315.1245,99.5526
2316.0889,99.5944
2317.0530,99.6544
2318.0173,99.7334
2318.9814,99.8176
2319.9458,99.8797
2320.9099,99.8859
2321.8743,99.8106
2322.8384,99.6504
2323.8027,99.4321
2324.7668,99.2054
2325.7312,99.0242
2326.6953,98.926
2327.6597,98.9174
2328.6238,98.9711
2329.5881,99.0354
2330.5522,99.0556
2331.5166,98.9997
2332.4807,98.8723
2333.4451,98.7086
2334.4092,98.553
2335.3735,98.4361
2336.3376,98.3628
2337.3020,98.3265
2338.2661,98.2902
2339.2305,98.227
2340.1946,98.1449
2341.1589,98.0954
2342.1230,98.164
2343.0874,98.4039
2344.0515,98.7327
2345.0159,98.951
2345.9800,98.9305
2346.9443,98.7287
2347.9084,98.5068
2348.8728,98.402
2349.8369,98.4594
2350.8013,98.6237
2351.7654,98.772
2352.7297,98.7857
2353.6938,98.6327
2354.6582,98.38
2355.6223,98.1086
2356.5867,97.8466
2357.5508,97.6004
2358.5151,97.407
2359.4792,97.3224
2360.4436,97.3686
2361.4077,97.5187
2362.3721,97.7334
2363.3362,97.9905
2364.3005,98.2798
2365.2646,98.586
2366.2290,98.8888
2367.1931,99.1757
2368.1575,99.4463
2369.1216,99.7039
2370.0859,99.946
2371.0500,100.162
2372.0144,100.338
2372.9785,100.462
2373.9429,100.525
2374.9070,100.524
2375.8713,100.461
2376.8354,100.345
2377.7998,100.19
2378.7639,100.018
2379.7283,99.848
2380.6924,99.6992
2381.6567,99.5826
2382.6208,99.5028
2383.5852,99.4573
2384.5493,99.4392
2385.5137,99.4396
2386.4778,99.4496
2387.4421,99.4624
2388.4063,99.4739
2389.3706,99.4822
2390.3347,99.4877
2391.2991,99.4913
2392.2632,99.4946
2393.2275,99.4984
2394.1917,99.5032
2395.1560,99.5091
2396.1201,99.5158
2397.0845,99.523
2398.0486,99.5299
2399.0129,99.5359
2399.9771,99.5404
2400.9414,99.5428
2401.9055,99.5433
2402.8699,99.5426
2403.8340,99.5422
2404.7983,99.5434
2405.7625,99.5467
2406.7268,99.5517
2407.6909,99.5573
2408.6553,99.562
2409.6194,99.5656
2410.5837,99.5684
2411.5479,99.5717
2412.5122,99.5764
2413.4763,99.5826
2414.4407,99.589
2415.4048,99.594
2416.3691,99.5969
2417.3333,99.5985
2418.2976,99.6003
2419.2617,99.6036
2420.2261,99.6085
2421.1902,99.6135
2422.1545,99.617
2423.1187,99.6182
2424.0830,99.6181
2425.0471,99.6188
2426.0115,99.6221
2426.9756,99.6281
2427.9399,99.6359
2428.9041,99.6435
2429.8684,99.6497
2430.8325,99.6543
2431.7969,99.6579
2432.7610,99.6611
2433.7253,99.6641
2434.6895,99.6667
2435.6538,99.6688
2436.6179,99.6708
2437.5823,99.6734
2438.5464,99.6772
2439.5107,99.6822
2440.4749,99.6878
2441.4392,99.6935
2442.4033,99.6988
2443.3677,99.7037
2444.3318,99.708
2445.2961,99.7114
2446.2603,99.713
2447.2246,99.7117
2448.1887,99.7072
2449.1531,99.7005
2450.1172,99.6933
2451.0815,99.688
2452.0457,99.6861
2453.0100,99.688
2453.9741,99.6929
2454.9385,99.6986
2455.9026,99.7034
2456.8669,99.7061
2457.8311,99.7066
2458.7954,99.7059
2459.7595,99.7054
2460.7239,99.7062
2461.6880,99.7083
2462.6523,99.711
2463.6165,99.713
2464.5808,99.7131
2465.5449,99.7108
2466.5093,99.7065
2467.4734,99.7009
2468.4377,99.6952
2469.4019,99.6904
2470.3662,99.6876
2471.3303,99.688
2472.2947,99.6918
2473.2588,99.6983
2474.2231,99.7053
2475.1873,99.7097
2476.1516,99.7094
2477.1157,99.7041
2478.0801,99.6962
2479.0442,99.6889
2480.0085,99.6852
2480.9727,99.6858
2481.9370,99.6889
2482.9011,99.6919
2483.8655,99.6927
2484.8296,99.691
2485.7939,99.688
2486.7581,99.686
2487.7224,99.6863
2488.6865,99.689
2489.6509,99.6931
2490.6150,99.6968
2491.5793,99.6985
2492.5435,99.6977
2493.5078,99.6949
2494.4719,99.692
2495.4363,99.691
2496.4004,99.6937
2497.3647,99.7001
2498.3289,99.7085
2499.2932,99.7161
2500.2573,99.7207
2501.2217,99.722
2502.1858,99.7216
2503.1501,99.722
2504.1143,99.7246
2505.0786,99.729
2506.0427,99.7332
2507.0071,99.7349
2507.9712,99.7328
2508.9355,99.7275
2509.8997,99.7203
2510.8640,99.713
2511.8281,99.7072
2512.7925,99.7041
2513.7566,99.7049
2514.7209,99.7107
2515.6851,99.7211
2516.6494,99.7344
2517.6135,99.7475
2518.5779,99.757
2519.5420,99.7612
2520.5063,99.7602
2521.4705,99.7564
2522.4348,99.7524
2523.3989,99.7502
2524.3633,99.7505
2525.3274,99.753
2526.2917,99.7573
2527.2559,99.7629
2528.2202,99.7693
2529.1843,99.7751
2530.1487,99.7787
2531.1128,99.7789
2532.0771,99.7759
2533.0413,99.7714
2534.0056,99.768
2534.9697,99.7673
2535.9341,99.7698
2536.8982,99.774
2537.8625,99.7781
2538.8267,99.7812
2539.7910,99.7831
2540.7551,99.7851
2541.7195,99.7885
2542.6836,99.7942
2543.6479,99.8023
2544.6121,99.812
2545.5764,99.8218
2546.5405,99.8301
2547.5049,99.8358
2548.4690,99.8388
2549.4333,99.8403
2550.3975,99.8422
2551.3618,99.8463
2552.3259,99.8532
2553.2903,99.8616
2554.2544,99.8698
2555.2188,99.876
2556.1829,99.8803
2557.1472,99.8838
2558.1113,99.8879
2559.0757,99.8932
2560.0398,99.8984
2561.0042,99.9014
2561.9683,99.9003
2562.9326,99.8952
2563.8967,99.8883
2564.8611,99.8834
2565.8252,99.8839
2566.7896,99.8913
2567.7537,99.904
2568.7180,99.9182
2569.6821,99.9294
2570.6465,99.9345
2571.6106,99.9333
2572.5750,99.9279
2573.5391,99.9218
2574.5034,99.9178
2575.4675,99.9169
2576.4319,99.9182
2577.3960,99.9202
2578.3604,99.9218
2579.3245,99.9231
2580.2888,99.9256
2581.2529,99.9306
2582.2173,99.9386
2583.1814,99.9487
2584.1458,99.9582
2585.1099,99.9644
2586.0742,99.9652
2587.0383,99.9603
2588.0027,99.9517
2588.9668,99.9421
2589.9312,99.9343
2590.8953,99.9299
2591.8596,99.9287
2592.8237,99.93
2593.7881,99.9325
2594.7522,99.9358
2595.7166,99.9397
2596.6807,99.9437
2597.6450,99.9471
2598.6091,99.9492
2599.5735,99.9501
2600.5376,99.9505
2601.5020,99.952
2602.4661,99.9552
2603.4304,99.9598
2604.3945,99.9644
2605.3589,99.9677
2606.3230,99.9691
2607.2874,99.9696
2608.2515,99.9702
2609.2158,99.9719
2610.1799,99.9745
2611.1443,99.9773
2612.1084,99.9798
2613.0728,99.9826
2614.0369,99.9865
2615.0012,99.9922
2615.9653,99.9988
2616.9297,100.005
2617.8938,100.007
2618.8582,100.006
2619.8223,100.001
2620.7866,99.9939
2621.7507,99.9884
2622.7151,99.9864
2623.6792,99.9886
2624.6436,99.9943
2625.6077,100.002
2626.5720,100.008
2627.5361,100.013
2628.5005,100.015
2629.4646,100.015
2630.4290,100.016
2631.3931,100.017
2632.3574,100.02
2633.3215,100.024
2634.2859,100.026
2635.2500,100.027
2636.2144,100.025
2637.1785,100.022
2638.1428,100.02
2639.1069,100.022
2640.0713,100.029
2641.0354,100.04
2641.9998,100.054
2642.9639,100.066
2643.9282,100.074
2644.8923,100.076
2645.8567,100.074
2646.8208,100.071
2647.7852,100.07
2648.7493,100.071
2649.7136,100.074
2650.6777,100.077
2651.6421,100.08
2652.6062,100.083
2653.5706,100.087
2654.5347,100.094
2655.4990,100.103
2656.4631,100.115
2657.4275,100.127
2658.3916,100.138
2659.3560,100.147
2660.3201,100.155
2661.2844,100.161
2662.2485,100.167
2663.2129,100.172
2664.1770,100.178
2665.1414,100.186
2666.1055,100.197
2667.0698,100.213
2668.0339,100.232
2668.9983,100.251
2669.9624,100.269
2670.9268,100.284
2671.8909,100.296
2672.8552,100.305
2673.8193,100.312
2674.7837,100.317
2675.7478,100.321
2676.7122,100.324
2677.6763,100.324
2678.6406,100.321
2679.6047,100.316
2680.5691,100.311
2681.5332,100.308
2682.4976,100.309
2683.4617,100.313
2684.4260,100.32
2685.3901,100.327
2686.3545,100.332
2687.3186,100.334
2688.2830,100.335
2689.2471,100.337
2690.2114,100.341
2691.1755,100.347
2692.1399,100.356
2693.1040,100.365
2694.0684,100.374
2695.0325,100.381
2695.9968,100.384
2696.9609,100.384
2697.9253,100.382
2698.8894,100.378
2699.8538,100.374
2700.8179,100.37
2701.7822,100.366
2702.7463,100.363
2703.7107,100.36
2704.6748,100.358
2705.6392,100.357
2706.6033,100.354
2707.5676,100.349
2708.5317,100.339
2709.4961,100.327
2710.4602,100.314
2711.4246,100.303
2712.3887,100.295
2713.3530,100.29
2714.3171,100.283
2715.2815,100.275
2716.2456,100.263
2717.2100,100.249
2718.1741,100.237
2719.1384,100.228
2720.1025,100.224
2721.0669,100.222
2722.0310,100.222
2722.9954,100.222
2723.9595,100.219
2724.9238,100.211
2725.8879,100.201
2726.8523,100.189
2727.8164,100.176
2728.7808,100.166
2729.7449,100.157
2730.7092,100.151
2731.6733,100.145
2732.6377,100.141
2733.6018,100.136
2734.5662,100.13
2735.5303,100.124
2736.4946,100.117
2737.4587,100.109
2738.4231,100.1
2739.3872,100.092
2740.3516,100.086
2741.3157,100.084
2742.2800,100.084
2743.2441,100.087
2744.2085,100.091
2745.1726,100.095
2746.1370,100.098
2747.1011,100.098
2748.0654,100.095
2749.0295,100.088
2749.9939,100.078
2750.9580,100.068
2751.9224,100.06
2752.8865,100.056
2753.8508,100.057
2754.8149,100.06
2755.7793,100.06
2756.7434,100.054
2757.7078,100.039
2758.6719,100.017
2759.6362,99.9917
2760.6003,99.9685
2761.5647,99.9509
2762.5288,99.9398
2763.4932,99.9333
2764.4573,99.9278
2765.4216,99.9203
2766.3857,99.9094
2767.3501,99.8961
2768.3142,99.882
2769.2786,99.8687
2770.2427,99.8555
2771.2070,99.84
2772.1711,99.8196
2773.1355,99.7932
2774.0996,99.7622
2775.0640,99.7298
2776.0281,99.6993
2776.9924,99.672
2777.9565,99.6463
2778.9209,99.6194
2779.8850,99.5885
2780.8494,99.5529
2781.8135,99.5139
2782.7778,99.4739
2783.7419,99.4353
2784.7063,99.3998
2785.6704,99.3674
2786.6348,99.3371
2787.5989,99.3065
2788.5632,99.2732
2789.5273,99.2349
2790.4917,99.1916
2791.4558,99.1448
2792.4202,99.0976
2793.3843,99.0524
2794.3486,99.0095
2795.3127,98.9666
2796.2771,98.9202
2797.2412,98.8677
2798.2056,98.8092
2799.1697,98.7467
2800.1340,98.6828
2801.0981,98.6169
2802.0625,98.5525
2803.0266,98.4886
2803.9910,98.4237
2804.9551,98.3565
2805.9194,98.2859
2806.8835,98.2108
2807.8479,98.1298
2808.8120,98.0421
2809.7764,97.9476
2810.7405,97.8473
2811.7048,97.743
2812.6689,97.6363
2813.6333,97.5281
2814.5974,97.4176
2815.5618,97.3025
2816.5259,97.1789
2817.4902,97.0422
2818.4543,96.8886
2819.4187,96.7157
2820.3828,96.5242
2821.3472,96.317
2822.3113,96.098
2823.2756,95.8704
2824.2397,95.6348
2825.2041,95.3896
2826.1682,95.1314
2827.1326,94.8567
2828.0967,94.5636
2829.0610,94.2522
2830.0251,93.9245
2830.9895,93.5841
2831.9536,93.2356
2832.9180,92.8837
2833.8821,92.5325
2834.8464,92.1853
2835.8105,91.8445
2836.7749,91.5116
2837.7390,91.1882
2838.7034,90.8757
2839.6675,90.5752
2840.6318,90.2856
2841.5959,90.0024
2842.5603,89.7182
2843.5244,89.4251
2844.4888,89.1201
2845.4529,88.8085
2846.4172,88.5056
2847.3813,88.2318
2848.3457,88.0048
2849.3098,87.8317
2850.2742,87.7054
2851.2383,87.6075
2852.2026,87.517
2853.1667,87.418
2854.1311,87.3046
2855.0952,87.1791
2856.0596,87.0469
2857.0237,86.9115
2857.9880,86.7719
2858.9521,86.6239
2859.9165,86.4634
2860.8806,86.2884
2861.8450,86.1003
2862.8091,85.9028
2863.7734,85.7007
2864.7375,85.4993
2865.7019,85.303
2866.6660,85.1153
2867.6304,84.9385
2868.5945,84.773
2869.5588,84.6182
2870.5229,84.4725
2871.4873,84.334
2872.4514,84.2008
2873.4158,84.0709
2874.3799,83.9429
2875.3442,83.8158
2876.3083,83.6884
2877.2727,83.5593
2878.2368,83.4276
2879.2012,83.2935
2880.1653,83.1612
2881.1296,83.0387
2882.0938,82.9368
2883.0581,82.8656
2884.0222,82.8301
2884.9866,82.828
2885.9507,82.8497
2886.9150,82.8806
2887.8792,82.9054
2888.8435,82.9125
2889.8076,82.8984
2890.7720,82.8688
2891.7361,82.8349
2892.7004,82.8056
2893.6646,82.7779
2894.6289,82.7338
2895.5930,82.6465
2896.5574,82.4967
2897.5215,82.2879
2898.4858,82.052
2899.4500,81.8379
2900.4143,81.6893
2901.3784,81.624
2902.3428,81.6265
2903.3069,81.658
2904.2712,81.6758
2905.2354,81.6511
2906.1997,81.5743
2907.1638,81.4514
2908.1282,81.2944
2909.0923,81.1151
2910.0566,80.9237
2911.0208,80.7291
2911.9851,80.5393
2912.9492,80.3599
2913.9136,80.1928
2914.8777,80.0366
2915.8420,79.889
2916.8062,79.7489
2917.7705,79.617
2918.7346,79.4944
2919.6990,79.3809
2920.6631,79.2745
2921.6274,79.1722
2922.5916,79.0712
2923.5559,78.9694
2924.5200,78.8666
2925.4844,78.7645
2926.4485,78.6667
2927.4128,78.5783
2928.3770,78.5046
2929.3413,78.4491
2930.3054,78.4132
2931.2698,78.3969
2932.2339,78.4007
2933.1982,78.4269
2934.1624,78.4794
2935.1267,78.5615
2936.0908,78.6737
2937.0552,78.8134
2938.0193,78.9753
2938.9836,79.1548
2939.9478,79.3494
2940.9121,79.5601
2941.8762,79.789
2942.8406,80.0366
2943.8047,80.2992
2944.7690,80.5677
2945.7332,80.8302
2946.6975,81.075
2947.6616,81.2951
2948.6260,81.489
2949.5901,81.66
2950.5544,81.8129
2951.5186,81.9519
2952.4829,82.0789
2953.4470,82.1951
2954.4114,82.3026
2955.3755,82.4049
2956.3398,82.5066
2957.3040,82.6116
2958.2683,82.7211
2959.2324,82.8329
2960.1968,82.942
2961.1609,83.0419
2962.1252,83.127
2963.0894,83.1942
2964.0537,83.244
2965.0178,83.2811
2965.9822,83.3127
2966.9463,83.3481
2967.9106,83.3971
2968.8748,83.4686
2969.8391,83.5701
2970.8032,83.7063
2971.7676,83.8775
2972.7317,84.0793
2973.6960,84.3035
2974.6602,84.5402
2975.6245,84.7809
2976.5886,85.0203
2977.5530,85.2575
2978.5171,85.4947
2979.4814,85.7342
2980.4456,85.975
2981.4099,86.2093
2982.3740,86.4224
2983.3384,86.5984
2984.3025,86.7311
2985.2668,86.8344
2986.2310,86.9462
2987.1953,87.1181
2988.1594,87.3942
2989.1238,87.7877
2990.0879,88.2706
2991.0522,88.7831
2992.0164,89.259
2992.9807,89.6542
2993.9448,89.9618
2994.9092,90.2078
2995.8733,90.4321
2996.8376,90.6665
2997.8018,90.9234
2998.7661,91.1982
2999.7302,91.4794
3000.6946,91.7591
3001.6587,92.0372
3002.6230,92.3191
3003.5872,92.6108
3004.5515,92.9148
3005.5156,93.2283
3006.4800,93.5448
3007.4441,93.8559
3008.4084,94.1549
3009.3726,94.4387
3010.3369,94.7095
3011.3010,94.9735
3012.2654,95.2373
3013.2295,95.5035
3014.1938,95.769
3015.1580,96.026
3016.1223,96.2666
3017.0864,96.4866
3018.0508,96.6874
3019.0149,96.8744
3019.9792,97.0537
3020.9434,97.2297
3021.9077,97.4035
3022.8718,97.5736
3023.8362,97.7371
3024.8003,97.8903
3025.7646,98.0304
3026.7288,98.156
3027.6931,98.2688
3028.6572,98.3739
3029.6216,98.4775
3030.5857,98.5843
3031.5500,98.6947
3032.5142,98.8044
3033.4785,98.9068
3034.4426,98.9975
3035.4070,99.0762
3036.3711,99.1467
3037.3354,99.2133
3038.2996,99.2776
3039.2639,99.3372
3040.2280,99.3866
3041.1924,99.4209
3042.1565,99.4385
3043.1208,99.4426
3044.0850,99.4393
3045.0493,99.4358
3046.0134,99.4371
3046.9778,99.444
3047.9419,99.4536
3048.9063,99.4598
3049.8704,99.4567
3050.8347,99.4409
3051.7988,99.4129
3052.7632,99.3543
3053.7273,99.2889
3054.6917,99.2292
3055.6558,99.1796
3056.6201,99.1405
3057.5842,99.1085
3058.5486,99.0769
3059.5127,99.0382
3060.4771,98.9866
3061.4412,98.9212
3062.4055,98.8465
3063.3696,98.7717
3064.3340,98.7066
3065.2981,98.6573
3066.2625,98.6232
3067.2266,98.5974
3068.1909,98.5707
3069.1550,98.5364
3070.1194,98.4924
3071.0835,98.4411
3072.0479,98.3862
3073.0120,98.3299
3073.9763,98.2715
3074.9404,98.2087
3075.9048,98.1406
3076.8689,98.0695
3077.8333,98.0005
3078.7974,97.9395
3079.7617,97.8897
3080.7258,97.8496
3081.6902,97.8134
3082.6543,97.7745
3083.6187,97.7287
3084.5828,97.6758
3085.5471,97.6189
3086.5112,97.5614
3087.4756,97.5044
3088.4397,97.4459
3089.4041,97.3824
3090.3682,97.3116
3091.3325,97.2344
3092.2966,97.1542
3093.2610,97.0744
3094.2251,96.9963
3095.1895,96.9182
3096.1536,96.8375
3097.1179,96.7534
3098.0820,96.6686
3099.0464,96.5887
3100.0105,96.5185
3100.9749,96.4589
3101.9390,96.4059
3102.9033,96.3525
3103.8674,96.2925
3104.8318,96.2234
3105.7959,96.147
3106.7603,96.0672
3107.7244,95.9875
3108.6887,95.9086
3109.6528,95.8289
3110.6172,95.7458
3111.5813,95.6573
3112.5457,95.5641
3113.5098,95.4685
3114.4741,95.3745
3115.4382,95.2852
3116.4026,95.2023
3117.3667,95.1249
3118.3311,95.0509
3119.2952,94.9779
3120.2595,94.9046
3121.2236,94.8319
3122.1880,94.7615
3123.1521,94.6944
3124.1165,94.6295
3125.0806,94.5631
3126.0449,94.4901
3127.0090,94.4063
3127.9734,94.3105
3128.9375,94.206
3129.9019,94.0993
3130.8660,93.9981
3131.8303,93.9083
3132.7944,93.8319
3133.7588,93.7661
3134.7229,93.705
3135.6873,93.6425
3136.6514,93.5744
3137.6157,93.4996
3138.5798,93.4191
3139.5442,93.3346
3140.5083,93.2476
3141.4727,93.1581
3142.4368,93.0658
3143.4011,92.9697
3144.3652,92.8702
3145.3296,92.7689
3146.2937,92.6695
3147.2581,92.5764
3148.2222,92.4932
3149.1865,92.4204
3150.1506,92.3539
3151.1150,92.2864
3152.0791,92.2104
3153.0435,92.122
3154.0076,92.0227
3154.9719,91.9179
3155.9360,91.8138
3156.9004,91.7139
3157.8645,91.6179
3158.8289,91.5233
3159.7930,91.4279
3160.7573,91.3315
3161.7214,91.2358
3162.6858,91.1428
3163.6499,91.0535
3164.6143,90.9673
3165.5784,90.8834
3166.5427,90.801
3167.5068,90.7197
3168.4712,90.6383
3169.4353,90.6042
3170.3997,90.514
3171.3638,90.4147
3172.3281,90.3064
3173.2922,90.1926
3174.2566,90.0789
3175.2207,89.9717
3176.1851,89.8749
3177.1492,89.7886
3178.1135,89.7096
3179.0776,89.6323
3180.0420,89.552
3181.0061,89.4668
3181.9705,89.378
3182.9346,89.2889
3183.8989,89.2021
3184.8630,89.1182
3185.8274,89.0351
3186.7915,88.9497
3187.7559,88.8607
3188.7200,88.7692
3189.6843,88.6789
3190.6484,88.5929
3191.6128,88.5115
3192.5769,88.4318
3193.5413,88.3488
3194.5054,88.259
3195.4697,88.1626
3196.4338,88.0639
3197.3982,87.9688
3198.3623,87.882
3199.3267,87.8044
3200.2908,87.7334
3201.2551,87.664
3202.2192,87.5917
3203.1836,87.5135
3204.1477,87.4286
3205.1121,87.3387
3206.0762,87.2469
3207.0405,87.1568
3208.0046,87.0707
3208.9690,86.9888
3209.9331,86.9094
3210.8975,86.8296
3211.8616,86.7479
3212.8259,86.6653
3213.7900,86.5842
3214.7544,86.5076
3215.7185,86.4362
3216.6829,86.3682
3217.6470,86.3003
3218.6113,86.2295
3219.5754,86.1545
3220.5398,86.0761
3221.5039,85.9961
3222.4683,85.9166
3223.4324,85.839
3224.3967,85.7641
3225.3608,85.6919
3226.3252,85.6222
3227.2893,85.5548
3228.2537,85.49
3229.2178,85.4286
3230.1821,85.3711
3231.1462,85.3175
3232.1106,85.2658
3233.0747,85.2126
3234.0391,85.1542
3235.0032,85.0883
3235.9675,85.0149
3236.9316,84.9367
3237.8960,84.8577
3238.8601,84.7811
3239.8245,84.7086
3240.7886,84.6404
3241.7529,84.5759
3242.7170,84.5151
3243.6814,84.4585
3244.6455,84.4067
3245.6099,84.359
3246.5740,84.3127
3247.5383,84.2642
3248.5024,84.21
3249.4668,84.1489
3250.4309,84.0821
3251.3953,84.0132
3252.3594,83.9463
3253.3237,83.885
3254.2878,83.8309
3255.2522,83.7839
3256.2163,83.743
3257.1807,83.7065
3258.1448,83.6717
3259.1091,83.6345
3260.0732,83.5902
3261.0376,83.5352
3262.0017,83.4692
3262.9661,83.3963
3263.9302,83.3234
3264.8945,83.2567
3265.8586,83.1981
3266.8230,83.1443
3267.7871,83.0889
3268.7515,83.0267
3269.7156,82.958
3270.6799,82.8889
3271.6440,82.8279
3272.6084,82.7816
3273.5725,82.7505
3274.5369,82.729
3275.5010,82.7085
3276.4653,82.6827
3277.4294,82.6494
3278.3938,82.6105
3279.3579,82.5691
3280.3223,82.5274
3281.2864,82.4855
3282.2507,82.443
3283.2148,82.3997
3284.1792,82.3564
3285.1433,82.3139
3286.1077,82.2717
3287.0718,82.228
3288.0361,82.181
3289.0002,82.1298
3289.9646,82.0765
3290.9287,82.0249
3291.8931,81.9791
3292.8572,81.9415
3293.8215,81.9112
3294.7856,81.884
3295.7500,81.8547
3296.7141,81.819
3297.6785,81.7755
3298.6426,81.727
3299.6069,81.6784
3300.5710,81.6346
3301.5354,81.5975
3302.4995,81.5655
3303.4639,81.5344
3304.4280,81.5007
3305.3923,81.4638
3306.3564,81.4262
3307.3208,81.3915
3308.2849,81.3626
3309.2493,81.3396
3310.2134,81.321
3311.1777,81.3049
3312.1418,81.2903
3313.1062,81.2766
3314.0703,81.263
3315.0347,81.2474
3315.9988,81.227
3316.9631,81.1997
3317.9272,81.1651
3318.8916,81.1249
3319.8557,81.0818
3320.8201,81.0395
3321.7842,81.0012
3322.7485,80.9695
3323.7126,80.9455
3324.6770,80.9279
3325.6411,80.9137
3326.6055,80.8985
3327.5696,80.8792
3328.5339,80.8549
3329.4980,80.8275
3330.4624,80.8005
3331.4265,80.7769
3332.3909,80.7578
3333.3550,80.7421
3334.3193,80.7282
3335.2834,80.7145
3336.2478,80.7005
3337.2119,80.6862
3338.1763,80.6721
3339.1404,80.6579
3340.1047,80.6433
3341.0688,80.6273
3342.0332,80.6089
3342.9973,80.5874
3343.9617,80.5632
3344.9258,80.5383
3345.8901,80.5159
3346.8542,80.4999
3347.8186,80.4925
3348.7827,80.4932
3349.7471,80.4984
3350.7112,80.5028
3351.6755,80.502
3352.6396,80.4937
3353.6040,80.4786
3354.5681,80.4597
3355.5325,80.4409
3356.4966,80.4252
3357.4609,80.4144
3358.4250,80.408
3359.3894,80.4037
3360.3535,80.399
3361.3179,80.3923
3362.2820,80.385
3363.2463,80.3804
3364.2104,80.3826
3365.1748,80.3934
3366.1389,80.4104
3367.1033,80.4287
3368.0674,80.4433
3369.0317,80.4525
3369.9958,80.4586
3370.9602,80.4651
3371.9243,80.4736
3372.8887,80.4819
3373.8528,80.486
3374.8171,80.4839
3375.7813,80.4785
3376.7456,80.4771
3377.7097,80.4875
3378.6741,80.513
3379.6382,80.5496
3380.6025,80.5878
3381.5667,80.6175
3382.5310,80.632
3383.4951,80.6309
3384.4595,80.6187
3385.4236,80.6028
3386.3879,80.591
3387.3521,80.5897
3388.3164,80.6027
3389.2805,80.6303
3390.2449,80.6682
3391.2090,80.7081
3392.1733,80.7418
3393.1375,80.7651
3394.1018,80.7819
3395.0659,80.8019
3396.0303,80.8349
3396.9944,80.8839
3397.9587,80.9419
3398.9229,80.9955
3399.8872,81.0323
3400.8513,81.0482
3401.8157,81.0499
3402.7798,81.0509
3403.7441,81.0642
3404.7083,81.0964
3405.6726,81.145
3406.6367,81.2016
3407.6011,81.2566
3408.5652,81.3032
3409.5295,81.3401
3410.4937,81.3702
3411.4580,81.3987
3412.4221,81.4301
3413.3865,81.4661
3414.3506,81.5056
3415.3149,81.5454
3416.2791,81.5824
3417.2434,81.6159
3418.2075,81.6493
3419.1719,81.6888
3420.1360,81.74
3421.1003,81.8049
3422.0645,81.8792
3423.0288,81.9552
3423.9929,82.0256
3424.9573,82.0874
3425.9214,82.1427
3426.8857,82.1974
3427.8499,82.2578
3428.8142,82.327
3429.7783,82.4038
3430.7427,82.4824
3431.7068,82.5561
3432.6711,82.6205
3433.6353,82.6752
3434.5996,82.7243
3435.5637,82.7737
3436.5281,82.8286
3437.4922,82.8904
3438.4565,82.957
3439.4207,83.0231
3440.3850,83.0837
3441.3491,83.1362
3442.3135,83.1824
3443.2776,83.2275
3444.2419,83.2782
3445.2061,83.3399
3446.1704,83.4148
3447.1345,83.5007
3448.0989,83.5926
3449.0630,83.6851
3450.0273,83.7751
3450.9915,83.8615
3451.9558,83.9437
3452.9199,84.0205
3453.8843,84.0906
3454.8484,84.1538
3455.8127,84.2116
3456.7769,84.2673
3457.7412,84.3247
3458.7053,84.3876
3459.6697,84.4581
3460.6338,84.5365
3461.5981,84.6205
3462.5623,84.7068
3463.5266,84.7923
3464.4907,84.8766
3465.4551,84.9616
3466.4192,85.0504
3467.3835,85.1438
3468.3477,85.2387
3469.3120,85.3295
3470.2761,85.4117
3471.2405,85.4855
3472.2046,85.5563
3473.1689,85.6318
3474.1331,85.7167
3475.0974,85.8089
3476.0615,85.9005
3477.0259,85.9836
3477.9900,86.0551
3478.9543,86.1194
3479.9185,86.1853
3480.8828,86.261
3481.8469,86.3487
3482.8113,86.4439
3483.7754,86.5401
3484.7397,86.6343
3485.7039,86.7278
3486.6682,86.824
3487.6323,86.9241
3488.5967,87.0254
3489.5608,87.1224
3490.5251,87.212
3491.4893,87.2959
3492.4536,87.3806
3493.4177,87.4735
3494.3821,87.5776
3495.3462,87.6885
3496.3105,87.795
3497.2747,87.8857
3498.2390,87.9561
3499.2031,88.0125
3500.1675,88.0697
3501.1316,88.1457
3502.0959,88.253
3503.0601,88.3896
3504.0244,88.539
3504.9885,88.6825
3505.9529,88.8114
3506.9170,88.929
3507.8813,89.0437
3508.8455,89.1623
3509.8098,89.2857
3510.7739,89.4088
3511.7383,89.5258
3512.7024,89.6356
3513.6667,89.7426
3514.6309,89.8519
3515.5952,89.9652
3516.5593,90.079
3517.5237,90.1873
3518.4878,90.2857
3519.4521,90.3743
3520.4163,90.457
3521.3806,90.5388
3522.3447,90.6229
3523.3091,90.7101
3524.2732,90.801
3525.2375,90.9
3526.2017,91.0158
3527.1660,91.1567
3528.1301,91.323
3529.0945,91.5028
3530.0586,91.6769
3531.0229,91.831
3531.9871,91.9623
3532.9514,92.0792
3533.9155,92.1945
3534.8799,92.3187
3535.8440,92.4542
3536.8083,92.5938
3537.7725,92.7243
3538.7368,92.8339
3539.7009,92.9195
3540.6653,92.9869
3541.6294,93.0492
3542.5938,93.1251
3543.5579,93.2353
3544.5222,93.3929
3545.4863,93.5885
3546.4507,93.7891
3547.4148,93.9607
3548.3792,94.0919
3549.3433,94.198
3550.3076,94.3069
3551.2717,94.4417
3552.2361,94.6091
3553.2002,94.7947
3554.1646,94.9738
3555.1287,95.1282
3556.0930,95.2548
3557.0571,95.3609
3558.0215,95.4538
3558.9856,95.5367
3559.9500,95.609
3560.9141,95.6705
3561.8784,95.7249
3562.8425,95.7789
3563.8069,95.842
3564.7710,95.9345
3565.7354,96.0935
3566.6995,96.3399
3567.6638,96.625
3568.6279,96.86
3569.5923,97.0052
3570.5564,97.0868
3571.5208,97.1492
3572.4849,97.2195
3573.4492,97.3025
3574.4133,97.392
3575.3777,97.4828
3576.3418,97.5745
3577.3062,97.6686
3578.2703,97.7627
3579.2346,97.8499
3580.1987,97.9227
3581.1631,97.9804
3582.1272,98.0309
3583.0916,98.0844
3584.0557,98.1442
3585.0200,98.2104
3585.9841,98.2917
3586.9485,98.3998
3587.9126,98.5157
3588.8770,98.5933
3589.8411,98.6132
3590.8054,98.6001
3591.7695,98.5892
3592.7339,98.5994
3593.6980,98.6294
3594.6624,98.6648
3595.6265,98.689
3596.5908,98.6968
3597.5549,98.7027
3598.5193,98.7346
3599.4834,98.8141
3600.4478,98.9383
3601.4119,99.08
3602.3762,99.2098
3603.3403,99.3166
3604.3047,99.4089
3605.2688,99.5008
3606.2332,99.6031
3607.1973,99.7169
3608.1616,99.8274
3609.1257,99.9062
3610.0901,99.9316
3611.0542,99.9063
3612.0186,99.8565
3612.9829,99.8149
3613.9470,99.8042
3614.9114,99.8296
3615.8755,99.8822
3616.8398,99.9484
3617.8040,100.019
3618.7683,100.087
3619.7324,100.131
3620.6968,100.122
3621.6609,100.055
3622.6252,99.973
3623.5894,99.9333
3624.5537,99.954
3625.5178,100.034
3626.4822,100.139
3627.4463,100.242
3628.4106,100.342
3629.3748,100.409
3630.3391,100.385
3631.3032,100.274
3632.2676,100.147
3633.2317,100.065
3634.1960,100.043
3635.1602,100.059
3636.1245,100.08
3637.0886,100.082
3638.0530,100.061
3639.0171,100.02
3639.9814,99.9664
3640.9456,99.9016
3641.9099,99.8316
3642.8740,99.7677
3643.8384,99.7188
3644.8025,99.6725
3645.7668,99.5845
3646.7310,99.4149
3647.6953,99.2344
3648.6594,99.236
3649.6238,99.4372
3650.5879,99.6041
3651.5522,99.6111
3652.5164,99.5196
3653.4807,99.4209
3654.4448,99.3537
3655.4092,99.3086
3656.3733,99.2591
3657.3376,99.1878
3658.3018,99.0994
3659.2661,99.0189
3660.2302,98.97
3661.1946,98.9557
3662.1587,98.9574
3663.1230,98.9547
3664.0872,98.9444
3665.0515,98.9382
3666.0156,98.942
3666.9800,98.9408
3667.9441,98.9138
3668.9084,98.8653
3669.8726,98.8192
3670.8369,98.7814
3671.8010,98.7415
3672.7654,98.6939
3673.7295,98.646
3674.6938,98.6325
3675.6580,98.6941
3676.6223,98.8013
3677.5864,98.8723
3678.5508,98.876
3679.5149,98.8392
3680.4792,98.7912
3681.4434,98.7421
3682.4077,98.6962
3683.3718,98.6664
3684.3362,98.6676
3685.3003,98.694
3686.2646,98.7051
3687.2288,98.6501
3688.1931,98.534
3689.1572,98.4408
3690.1216,98.4316
3691.0857,98.476
3692.0500,98.5252
3693.0142,98.5676
3693.9785,98.611
3694.9426,98.6619
3695.9070,98.7228
3696.8711,98.7954
3697.8354,98.88
3698.7996,98.9731
3699.7639,99.0665
3700.7280,99.1508
3701.6924,99.2148
3702.6565,99.2459
3703.6208,99.238
3704.5850,99.202
3705.5493,99.1587
3706.5134,99.1199
3707.4778,99.0817
3708.4419,99.0423
3709.4063,99.0419
3710.3704,99.1598
3711.3347,99.4054
3712.2988,99.653
3713.2632,99.7744
3714.2273,99.7554
3715.1917,99.6567
3716.1558,99.5387
3717.1201,99.4295
3718.0842,99.3294
3719.0486,99.2292
3720.0127,99.1264
3720.9771,99.0289
3721.9412,98.9511
3722.9055,98.9051
3723.8696,98.8946
3724.8340,98.9143
3725.7981,98.9725
3726.7625,99.0191
3727.7266,99.0554
3728.6909,99.0959
3729.6550,99.1483
3730.6194,99.1997
3731.5835,99.2188
3732.5479,99.1856
3733.5120,99.133
3734.4763,99.1397
3735.4404,99.2284
3736.4048,99.3157
3737.3689,99.3336
3738.3333,99.3192
3739.2974,99.3652
3740.2617,99.5368
3741.2258,99.8241
3742.1902,100.133
3743.1543,100.326
3744.1187,100.31
3745.0828,100.104
3746.0471,99.8092
3747.0112,99.5381
3747.9756,99.3565
3748.9397,99.2882
3749.9041,99.3462
3750.8682,99.5062
3751.8325,99.6474
3752.7966,99.6546
3753.7610,99.542
3754.7251,99.3987
3755.6895,99.2939
3756.6536,99.252
3757.6179,99.2705
3758.5820,99.3341
3759.5464,99.4133
3760.5105,99.4764
3761.4749,99.5107
3762.4390,99.5251
3763.4033,99.533
3764.3674,99.5405
3765.3318,99.5464
3766.2959,99.5486
3767.2603,99.5492
3768.2244,99.5563
3769.1887,99.5787
3770.1528,99.6142
3771.1172,99.6465
3772.0813,99.6582
3773.0457,99.648
3774.0098,99.6283
3774.9741,99.6106
3775.9382,99.5953
3776.9026,99.5776
3777.8667,99.5588
3778.8311,99.5456
3779.7952,99.5358
3780.7595,99.5189
3781.7236,99.4909
3782.6880,99.4614
3783.6521,99.4468
3784.6165,99.4604
3785.5806,99.5042
3786.5449,99.566
3787.5090,99.6261
3788.4734,99.6692
3789.4375,99.6914
3790.4019,99.6976
3791.3660,99.692
3792.3303,99.6712
3793.2944,99.6258
3794.2588,99.553
3795.2229,99.4668
3796.1873,99.395
3797.1514,99.3606
3798.1157,99.3641
3799.0798,99.3853
3800.0442,99.4032
3801.0083,99.414
3801.9727,99.4234
3802.9368,99.4389
3803.9011,99.474
3804.8652,99.5418
3805.8296,99.635
3806.7937,99.7182
3807.7581,99.7466
3808.7222,99.7031
3809.6865,99.6232
3810.6506,99.571
3811.6150,99.5871
3812.5791,99.6572
3813.5435,99.7199
3814.5076,99.7127
3815.4719,99.621
3816.4360,99.4834
3817.4004,99.3563
3818.3645,99.2835
3819.3289,99.286
3820.2930,99.3557
3821.2573,99.4425
3822.2214,99.4781
3823.1858,99.4365
3824.1499,99.3542
3825.1143,99.2887
3826.0784,99.2768
3827.0427,99.3203
3828.0068,99.3954
3828.9712,99.4706
3829.9353,99.5245
3830.8997,99.5529
3831.8638,99.5645
3832.8281,99.5694
3833.7922,99.5672
3834.7566,99.5432
3835.7207,99.4786
3836.6851,99.3731
3837.6492,99.2605
3838.6135,99.1876
3839.5776,99.1772
3840.5420,99.2226
3841.5061,99.3076
3842.4705,99.4127
3843.4346,99.5078
3844.3989,99.5572
3845.3630,99.5421
3846.3274,99.4816
3847.2915,99.4285
3848.2559,99.442
3849.2200,99.553
3850.1843,99.7398
3851.1484,99.9391
3852.1128,100.111
3853.0769,100.262
3854.0413,100.324
3855.0054,100.195
3855.9697,99.926
3856.9338,99.6595
3857.8982,99.4917
3858.8623,99.436
3859.8267,99.4458
3860.7908,99.4556
3861.7551,99.4285
3862.7192,99.3838
3863.6836,99.3716
3864.6477,99.4183
3865.6121,99.5087
3866.5762,99.6067
3867.5405,99.6763
3868.5046,99.6949
3869.4690,99.6665
3870.4331,99.622
3871.3975,99.594
3872.3616,99.5914
3873.3259,99.6033
3874.2900,99.6198
3875.2544,99.6396
3876.2185,99.6631
3877.1829,99.683
3878.1470,99.6857
3879.1113,99.6651
3880.0754,99.6341
3881.0398,99.6198
3882.0039,99.6445
3882.9683,99.7114
3883.9324,99.8026
3884.8967,99.8857
3885.8608,99.9279
3886.8252,99.9159
3887.7893,99.8619
3888.7537,99.7898
3889.7178,99.7191
3890.6821,99.6643
3891.6462,99.6347
3892.6106,99.6261
3893.5747,99.6262
3894.5391,99.6344
3895.5032,99.6595
3896.4675,99.6983
3897.4316,99.7306
3898.3960,99.736
3899.3601,99.714
3900.3245,99.6816
3901.2886,99.6566
3902.2529,99.6488
3903.2170,99.6607
3904.1814,99.6845
3905.1455,99.7051
3906.1099,99.7144
3907.0740,99.7179
3908.0383,99.7252
3909.0024,99.7387
3909.9668,99.7523
3910.9309,99.7586
3911.8953,99.7557
3912.8594,99.748
3913.8237,99.7417
3914.7878,99.7411
3915.7522,99.7479
3916.7163,99.7612
3917.6807,99.7731
3918.6448,99.7687
3919.6091,99.7379
3920.5732,99.6854
3921.5376,99.6271
3922.5017,99.5806
3923.4661,99.5565
3924.4302,99.5524
3925.3945,99.5542
3926.3586,99.547
3927.3230,99.5269
3928.2871,99.5027
3929.2515,99.4899
3930.2156,99.5045
3931.1799,99.5551
3932.1440,99.632
3933.1084,99.709
3934.0725,99.7609
3935.0369,99.7795
3936.0010,99.7718
3936.9653,99.7499
3937.9294,99.7228
3938.8938,99.6954
3939.8579,99.6706
3940.8223,99.6529
3941.7864,99.6472
3942.7507,99.6536
3943.7148,99.6652
3944.6792,99.6721
3945.6433,99.6675
3946.6077,99.6511
3947.5718,99.6286
3948.5361,99.6102
3949.5002,99.6044
3950.4646,99.6131
3951.4287,99.6312
3952.3931,99.6519
3953.3572,99.6699
3954.3215,99.6821
3955.2856,99.6872
3956.2500,99.6854
3957.2141,99.678
3958.1785,99.6676
3959.1426,99.658
3960.1069,99.6539
3961.0710,99.6602
3962.0354,99.6794
3962.9995,99.7092
3963.9639,99.7431
3964.9280,99.7723
3965.8923,99.7891
3966.8564,99.7891
3967.8208,99.7723
3968.7849,99.7437
3969.7493,99.7107
3970.7134,99.6811
3971.6777,99.6602
3972.6418,99.6496
3973.6062,99.6477
3974.5703,99.651
3975.5347,99.6563
3976.4988,99.6618
3977.4631,99.6677
3978.4272,99.6751
3979.3916,99.6839
3980.3557,99.6924
3981.3201,99.6978
3982.2842,99.6975
3983.2485,99.6911
3984.2126,99.6807
3985.1770,99.6704
3986.1411,99.6637
3987.1055,99.6623
3988.0696,99.6645
3989.0339,99.6661
3989.9980,99.6633
3990.9624,99.6546
3991.9265,99.6433
3992.8909,99.6351
3993.8550,99.635
3994.8193,99.6432
3995.7834,99.6545
3996.7478,99.6614
3997.7119,99.6592
3998.6763,99.65
3999.6404,99.6415
4000.6047,99.4832

##### Extended Information
[Comments]
Sample name
Comment
User
Division
Company,HANKYONG

[Detailed Information]
Creation date,4/24/2024 11:11 AM

Data array type,Linear data array
Horizontal axis,Wavenumber [cm-1]
Vertical axis,%T
Start,649.893 cm-1
End,4000.6 cm-1
Data interval,0.964233 cm-1
Data points,3476    

[Measurement Information]
Model Name,FT/IR-4700typeA
Serial Number,D056761788

Accessory,ATR PRO ONE
Accessory S/N,C174761809
Incident angle,45 deg

Measurement Date,4/24/2024 11:11 AM

Light Source,Standard
Detector,TGS
Accumulation,32
Resolution,4 cm-1
Zero Filling,On
Apodization,Cosine
Gain,Auto (4)
Aperture,Auto (7.1 mm)
Scanning Speed,Auto (2 mm/sec)
Filter,Auto (30000 Hz)

