TITLE,
DATA TYPE,INFRARED SPECTRUM
ORIGIN,JASCO
OWNER,
DATE,24/04/24
TIME,10:36:01
SPECTROMETER/DATA SYSTEM,
LOCALE,1033
RESOLUTION,
DELTAX,0.964233
XUNITS,1/CM
YUNITS,TRANSMITTANCE
FIRSTX,  649.8934
LASTX, 4000.6047
NPOINTS,    3476
FIRSTY,    99.66290
MAXY,   101.80012
MINY,    46.54705
XYDATA
649.8934,99.6629
650.8576,99.5155
651.8218,99.3643
652.7861,99.2287
653.7503,99.1158
654.7145,99.0273
655.6788,98.9526
656.6430,98.8738
657.6072,98.7765
658.5715,98.6613
659.5357,98.5439
660.4999,98.4437
661.4642,98.3664
662.4284,98.2952
663.3926,98.1964
664.3569,98.0297
665.3211,97.7556
666.2853,97.3514
667.2496,96.8681
668.2138,96.4966
669.1780,96.4417
670.1423,96.6641
671.1065,96.9661
672.0707,97.2164
673.0350,97.3758
673.9992,97.4467
674.9634,97.4484
675.9277,97.4124
676.8919,97.379
677.8561,97.3859
678.8204,97.4573
679.7846,97.6009
680.7488,97.8083
681.7131,98.0579
682.6773,98.3218
683.6415,98.5767
684.6058,98.8127
685.5700,99.031
686.5342,99.2335
687.4985,99.4108
688.4627,99.5398
689.4269,99.5912
690.3912,99.5456
691.3554,99.4198
692.3196,99.2896
693.2839,99.2708
694.2481,99.4283
695.2123,99.7102
696.1766,100.006
697.1408,100.233
698.1050,100.359
699.0693,100.393
700.0335,100.364
700.9977,100.309
701.9620,100.257
702.9262,100.223
703.8904,100.209
704.8547,100.213
705.8189,100.232
706.7831,100.256
707.7474,100.274
708.7116,100.272
709.6758,100.24
710.6401,100.176
711.6043,100.089
712.5685,99.9881
713.5328,99.8832
714.4970,99.7828
715.4612,99.9048
716.4255,99.7734
717.3897,99.633
718.3539,99.4976
719.3182,99.3904
720.2824,99.3344
721.2466,99.3393
722.2109,99.3952
723.1751,99.4772
724.1393,99.5568
725.1036,99.6131
726.0678,99.6394
727.0320,99.6445
727.9963,99.648
728.9605,99.6704
729.9247,99.7216
730.8890,99.795
731.8532,99.8698
732.8174,99.9203
733.7817,99.9277
734.7459,99.8865
735.7101,99.803
736.6744,99.6873
737.6386,99.5459
738.6028,99.3785
739.5671,99.1814
740.5313,98.9531
741.4955,98.6995
742.4598,98.4348
743.4240,98.1787
744.3882,97.9512
745.3525,97.7668
746.3167,97.6301
747.2809,97.5355
748.2452,97.4694
749.2094,97.4168
750.1736,97.3667
751.1379,97.3153
752.1021,97.2649
753.0663,97.22
754.0306,97.1828
754.9948,97.1513
755.9590,97.1195
756.9233,97.0791
757.8875,97.0235
758.8517,96.9497
759.8160,96.8609
760.7802,96.7666
761.7444,96.6797
762.7087,96.6116
763.6729,96.5691
764.6371,96.554
765.6014,96.5665
766.5656,96.6092
767.5298,96.686
768.4941,96.7966
769.4583,96.9298
770.4225,97.062
771.3868,97.1631
772.3510,97.209
773.3152,97.1911
774.2795,97.1189
775.2437,97.0133
776.2079,96.8968
777.1722,96.7848
778.1364,96.6837
779.1006,96.5923
780.0649,96.5058
781.0291,96.418
781.9933,96.3237
782.9576,96.2206
783.9218,96.1103
784.8860,95.9994
785.8503,95.8958
786.8145,95.8054
787.7787,95.7281
788.7430,95.6586
789.7072,95.5893
790.6714,95.5148
791.6357,95.4342
792.5999,95.3499
793.5641,95.2644
794.5284,95.1766
795.4926,95.0814
796.4568,94.9718
797.4211,94.8432
798.3853,94.6961
799.3495,94.5365
800.3138,94.3724
801.2780,94.209
802.2422,94.0453
803.2065,93.875
804.1707,93.6896
805.1349,93.4835
806.0992,93.2567
807.0634,93.0138
808.0276,92.7605
808.9919,92.5008
809.9561,92.2363
810.9203,91.9683
811.8846,91.7011
812.8488,91.4425
813.8130,91.202
814.7773,90.9873
815.7415,90.8013
816.7057,90.6416
817.6700,90.5021
818.6342,90.3765
819.5984,90.2617
820.5627,90.1589
821.5269,90.0734
822.4911,90.0122
823.4554,89.9798
824.4196,89.9756
825.3839,89.9921
826.3481,90.0165
827.3123,90.0346
828.2766,90.0341
829.2408,90.0064
830.2050,89.9471
831.1693,89.8534
832.1335,89.7234
833.0977,89.5561
834.0620,89.3518
835.0262,89.1137
835.9904,88.8469
836.9547,88.5576
837.9189,88.2509
838.8831,87.9308
839.8474,87.6003
840.8116,87.2638
841.7758,86.9277
842.7401,86.6002
843.7043,86.29
844.6685,86.0035
845.6328,85.7439
846.5970,85.5107
847.5612,85.3012
848.5255,85.112
849.4897,84.9398
850.4539,84.7816
851.4182,84.6358
852.3824,84.5017
853.3466,84.3806
854.3109,84.2743
855.2751,84.1832
856.2393,84.104
857.2036,84.0299
858.1678,83.9531
859.1320,83.8703
860.0963,83.7862
861.0605,83.7134
862.0247,83.6683
862.9890,83.6645
863.9532,83.7085
864.9174,83.7986
865.8817,83.9275
866.8459,84.0861
867.8101,84.2676
868.7744,84.4699
869.7386,84.6952
870.7028,84.9459
871.6671,85.2171
872.6313,85.4889
873.5955,85.7259
874.5598,85.8866
875.5240,85.9423
876.4882,85.8939
877.4525,85.7762
878.4167,85.6443
879.3809,85.5478
880.3452,85.5098
881.3094,85.522
882.2736,85.5577
883.2379,85.5911
884.2021,85.6091
885.1663,85.6085
886.1306,85.5863
887.0948,85.5346
888.0590,85.4469
889.0233,85.3303
889.9875,85.2123
890.9517,85.133
891.9160,85.1255
892.8802,85.198
893.8444,85.329
894.8087,85.4802
895.7729,85.6158
896.7371,85.718
897.7014,85.7885
898.6656,85.841
899.6298,85.8899
900.5941,85.944
901.5583,86.0067
902.5225,86.0786
903.4868,86.1595
904.4510,86.2481
905.4152,86.3399
906.3795,86.4268
907.3437,86.4996
908.3079,86.5512
909.2722,86.5798
910.2364,86.5908
911.2006,86.5957
912.1649,86.6093
913.1291,86.6451
914.0933,86.7124
915.0576,86.8141
916.0218,86.9484
916.9860,87.1115
917.9503,87.3003
918.9145,87.5139
919.8787,87.7523
920.8430,88.0144
921.8072,88.2974
922.7714,88.5965
923.7357,88.9068
924.6999,89.2248
925.6641,89.5501
926.6284,89.8854
927.5926,90.2371
928.5568,90.6148
929.5211,91.029
930.4853,91.4896
931.4495,92.0032
932.4138,92.5723
933.3780,93.1952
934.3422,93.8661
935.3065,94.5745
936.2707,95.3037
937.2349,96.0301
938.1992,96.7248
939.1634,97.3589
940.1276,97.91
941.0919,98.3678
942.0561,98.7345
943.0203,99.0205
943.9846,99.2382
944.9488,99.3967
945.9130,99.4999
946.8773,99.5486
947.8415,99.5435
948.8057,99.5182
949.7700,99.5336
950.7342,99.5119
951.6984,99.4605
952.6627,99.3845
953.6269,99.2853
954.5911,99.1602
955.5554,99.0036
956.5196,98.8089
957.4838,98.5712
958.4481,98.2888
959.4123,97.9637
960.3765,97.5993
961.3408,97.2002
962.3050,96.7711
963.2692,96.3184
964.2335,95.8512
965.1977,95.3807
966.1619,94.9184
967.1262,94.4735
968.0904,94.0516
969.0546,93.6548
970.0189,93.284
970.9831,92.9392
971.9473,92.6205
972.9116,92.3264
973.8758,92.0536
974.8400,91.7972
975.8043,91.5516
976.7685,91.3108
977.7327,91.068
978.6970,90.8145
979.6612,90.5398
980.6254,90.2333
981.5897,89.8865
982.5539,89.4946
983.5181,89.0568
984.4824,88.5771
985.4466,88.0631
986.4108,87.5272
987.3751,86.9856
988.3393,86.4579
989.3035,85.9631
990.2678,85.5172
991.2320,85.1294
992.1962,84.8017
993.1605,84.5292
994.1247,84.3011
995.0889,84.104
996.0532,83.9233
997.0174,83.7451
997.9816,83.5566
998.9459,83.3458
999.9101,83.1002
1000.8743,82.8074
1001.8386,82.4558
1002.8028,82.0354
1003.7670,81.5386
1004.7313,80.9591
1005.6955,80.2914
1006.6597,79.5296
1007.6240,78.6688
1008.5882,77.7065
1009.5524,76.6446
1010.5167,75.4907
1011.4809,74.2582
1012.4451,72.9648
1013.4094,71.6282
1014.3736,70.2625
1015.3378,68.8759
1016.3021,67.4739
1017.2663,66.0653
1018.2305,64.6656
1019.1948,63.2911
1020.1590,61.9448
1021.1232,60.6049
1022.0875,59.2275
1023.0517,57.7722
1024.0160,56.2374
1024.9802,54.6835
1025.9445,53.2232
1026.9087,51.9771
1027.8729,51.0177
1028.8372,50.3343
1029.8014,49.8394
1030.7656,49.4135
1031.7299,48.9601
1032.6941,48.4425
1033.6583,47.8878
1034.6226,47.3625
1035.5868,46.9375
1036.5510,46.6614
1037.5153,46.5471
1038.4795,46.5731
1039.4437,46.6953
1040.4080,46.8638
1041.3722,47.0396
1042.3364,47.2066
1043.3007,47.3713
1044.2649,47.5537
1045.2291,47.7734
1046.1934,48.042
1047.1576,48.3639
1048.1218,48.7433
1049.0861,49.1886
1050.0503,49.7071
1051.0145,50.2941
1051.9788,50.9268
1052.9430,51.572
1053.9072,52.2085
1054.8715,52.8498
1055.8357,53.55
1056.7999,54.3802
1057.7642,55.3803
1058.7284,56.5123
1059.6926,57.6457
1060.6569,58.5958
1061.6211,59.2055
1062.5853,59.4301
1063.5496,59.3768
1064.5138,59.2683
1065.4780,59.3419
1066.4423,59.7357
1067.4065,60.4236
1068.3707,61.2359
1069.3350,61.9497
1070.2992,62.3966
1071.2634,62.5268
1072.2277,62.4054
1073.1919,62.1542
1074.1561,61.8849
1075.1204,61.6601
1076.0846,61.4951
1077.0488,61.3828
1078.0131,61.3181
1078.9773,61.3052
1079.9415,61.3503
1080.9058,61.451
1081.8700,61.5933
1082.8342,61.7556
1083.7985,61.9183
1084.7627,62.0725
1085.7269,62.2245
1086.6912,62.3952
1087.6554,62.6127
1088.6196,62.8992
1089.5839,63.2561
1090.5481,63.6558
1091.5123,64.0472
1092.4766,64.3732
1093.4408,64.5932
1094.4050,64.6974
1095.3693,64.7062
1096.3335,64.6559
1097.2977,64.5815
1098.2620,64.505
1099.2262,64.4336
1100.1904,64.367
1101.1547,64.3055
1102.1189,64.2546
1103.0831,64.2259
1104.0474,64.2333
1105.0116,64.2896
1105.9758,64.405
1106.9401,64.5864
1107.9043,64.8401
1108.8685,65.1745
1109.8328,65.6018
1110.7970,66.1366
1111.7612,66.7927
1112.7255,67.5786
1113.6897,68.495
1114.6539,69.5355
1115.6182,70.6908
1116.5824,71.9521
1117.5466,73.3124
1118.5109,74.766
1119.4751,76.305
1120.4393,77.9184
1121.4036,79.5912
1122.3678,81.306
1123.3320,83.0438
1124.2963,84.7839
1125.2605,86.5038
1126.2247,88.1799
1127.1890,89.7889
1128.1532,91.3107
1129.1174,92.7303
1130.0817,94.0378
1131.0459,95.227
1132.0101,96.2941
1132.9744,97.2357
1133.9386,98.0494
1134.9028,98.734
1135.8671,99.2899
1136.8313,99.719
1137.7955,100.025
1138.7598,100.211
1139.7240,100.285
1140.6882,100.246
1141.6525,100.079
1142.6167,99.8362
1143.5809,99.5336
1144.5452,99.1895
1145.5094,98.8231
1146.4736,98.4531
1147.4379,98.0982
1148.4021,97.7757
1149.3663,97.5015
1150.3306,97.2885
1151.2948,97.1453
1152.2590,97.074
1153.2233,97.0689
1154.1875,97.1152
1155.1517,97.1918
1156.1160,97.2746
1157.0802,97.341
1158.0444,97.3729
1159.0087,97.3579
1159.9729,97.2878
1160.9371,97.1574
1161.9014,96.9651
1162.8656,96.713
1163.8298,96.4085
1164.7941,96.063
1165.7583,95.6892
1166.7225,95.2973
1167.6868,94.894
1168.6510,94.4816
1169.6152,94.0603
1170.5795,93.6291
1171.5437,93.1863
1172.5079,92.7293
1173.4722,92.2538
1174.4364,91.7555
1175.4006,91.2316
1176.3649,90.6823
1177.3291,90.1112
1178.2933,89.5241
1179.2576,88.9269
1180.2218,88.3246
1181.1860,87.7215
1182.1503,87.1214
1183.1145,86.5286
1184.0787,85.9482
1185.0430,85.3849
1186.0072,84.8415
1186.9714,84.3179
1187.9357,83.811
1188.8999,83.3163
1189.8641,82.8291
1190.8284,82.3466
1191.7926,81.8684
1192.7568,81.3961
1193.7211,80.9328
1194.6853,80.4819
1195.6495,80.0457
1196.6138,79.6246
1197.5780,79.2165
1198.5422,78.8174
1199.5065,78.4258
1200.4707,78.0347
1201.4349,77.6481
1202.3992,77.2701
1203.3634,76.9062
1204.3276,76.5621
1205.2919,76.243
1206.2561,75.9529
1207.2203,75.6954
1208.1846,75.4724
1209.1488,75.2846
1210.1130,75.131
1211.0773,75.01
1212.0415,74.9204
1213.0057,74.8624
1213.9700,74.8377
1214.9342,74.8487
1215.8984,74.8972
1216.8627,74.9826
1217.8269,75.1019
1218.7911,75.2491
1219.7554,75.4175
1220.7196,75.6011
1221.6838,75.7949
1222.6481,75.9954
1223.6123,76.1985
1224.5765,76.3999
1225.5408,76.5953
1226.5050,76.7824
1227.4692,76.9605
1228.4335,77.1293
1229.3977,77.2884
1230.3619,77.4393
1231.3262,77.5902
1232.2904,77.7584
1233.2546,77.9641
1234.2189,78.2162
1235.1831,78.4984
1236.1473,78.7686
1237.1116,78.9782
1238.0758,79.1054
1239.0400,79.1786
1240.0043,79.2719
1240.9685,79.4686
1241.9327,79.8117
1242.8970,80.2728
1243.8612,80.7612
1244.8254,81.1697
1245.7897,81.4297
1246.7539,81.5413
1247.7181,81.5632
1248.6824,81.5729
1249.6466,81.6255
1250.6108,81.7332
1251.5751,81.872
1252.5393,82.0048
1253.5035,82.1026
1254.4678,82.1547
1255.4320,82.1652
1256.3962,82.1457
1257.3605,82.1089
1258.3247,82.0671
1259.2889,82.0321
1260.2532,82.0151
1261.2174,82.0244
1262.1816,82.0641
1263.1459,82.1345
1264.1101,82.2333
1265.0743,82.3568
1266.0386,82.502
1267.0028,82.6661
1267.9670,82.8484
1268.9313,83.0502
1269.8955,83.2752
1270.8597,83.5278
1271.8240,83.8117
1272.7882,84.1275
1273.7524,84.4729
1274.7167,84.8432
1275.6809,85.2337
1276.6451,85.6403
1277.6094,86.0604
1278.5736,86.4919
1279.5378,86.9324
1280.5021,87.378
1281.4663,87.8231
1282.4305,88.2617
1283.3948,88.6893
1284.3590,89.1039
1285.3232,89.5063
1286.2875,89.8995
1287.2517,90.2862
1288.2159,90.668
1289.1802,91.0444
1290.1444,91.4133
1291.1086,91.7726
1292.0729,92.1216
1293.0371,92.4617
1294.0013,92.7956
1294.9656,93.1266
1295.9298,93.4562
1296.8940,93.7828
1297.8583,94.1019
1298.8225,94.4061
1299.7867,94.6878
1300.7510,94.9405
1301.7152,95.1605
1302.6794,95.348
1303.6437,95.5065
1304.6079,95.6401
1305.5721,95.7517
1306.5364,95.8412
1307.5006,95.9065
1308.4648,95.9454
1309.4291,95.9592
1310.3933,95.9535
1311.3575,95.9369
1312.3218,95.9169
1313.2860,95.8968
1314.2502,95.8747
1315.2145,95.8469
1316.1787,95.8122
1317.1429,95.7745
1318.1072,95.7406
1319.0714,95.7156
1320.0356,95.6985
1320.9999,95.6823
1321.9641,95.6594
1322.9283,95.6274
1323.8926,95.5912
1324.8568,95.5618
1325.8210,95.5509
1326.7853,95.5678
1327.7495,95.6171
1328.7137,95.7012
1329.6780,95.8219
1330.6422,95.98
1331.6064,96.1717
1332.5707,96.3856
1333.5349,96.6044
1334.4991,96.8122
1335.4634,97.0037
1336.4276,97.1899
1337.3918,97.3969
1338.3561,97.6518
1339.3203,97.9604
1340.2845,98.2938
1341.2488,98.6052
1342.2130,98.8589
1343.1772,99.0435
1344.1415,99.1512
1345.1057,99.0883
1346.0699,98.9932
1347.0342,98.8783
1347.9984,98.7509
1348.9626,98.6122
1349.9269,98.4584
1350.8911,98.285
1351.8553,98.0913
1352.8196,97.882
1353.7838,97.6664
1354.7480,97.4531
1355.7123,97.2441
1356.6765,97.0334
1357.6407,96.8108
1358.6050,96.5691
1359.5692,96.3101
1360.5334,96.0487
1361.4977,95.8109
1362.4619,95.6189
1363.4261,95.4715
1364.3904,95.3439
1365.3546,95.2077
1366.3188,95.0461
1367.2831,94.8543
1368.2473,94.634
1369.2115,94.3884
1370.1758,94.1201
1371.1400,93.832
1372.1042,93.5323
1373.0685,93.2389
1374.0327,92.9757
1374.9969,92.7582
1375.9612,92.5805
1376.9254,92.4246
1377.8896,92.2801
1378.8539,92.1544
1379.8181,92.0649
1380.7823,92.0237
1381.7466,92.0294
1382.7108,92.0742
1383.6750,92.1619
1384.6393,92.3148
1385.6035,92.5532
1386.5677,92.8453
1387.5320,93.0727
1388.4962,93.0814
1389.4604,92.7862
1390.4247,92.2152
1391.3889,91.4826
1392.3531,90.7572
1393.3174,90.2384
1394.2816,90.0927
1395.2458,90.342
1396.2101,90.8032
1397.1743,91.1876
1398.1385,91.2885
1399.1028,91.0756
1400.0670,90.6451
1401.0313,90.1168
1401.9955,89.5726
1402.9597,89.0516
1403.9240,88.5749
1404.8882,88.1653
1405.8524,87.8439
1406.8167,87.6141
1407.7809,87.4603
1408.7451,87.3626
1409.7094,87.3094
1410.6736,87.2946
1411.6378,87.3052
1412.6021,87.3168
1413.5663,87.3035
1414.5305,87.2511
1415.4948,87.1612
1416.4590,87.0477
1417.4232,86.931
1418.3875,86.8247
1419.3517,86.7162
1420.3159,86.5748
1421.2802,86.387
1422.2444,86.1671
1423.2086,85.9404
1424.1729,85.7267
1425.1371,85.5367
1426.1013,85.3763
1427.0656,85.2558
1428.0298,85.1918
1428.9940,85.1986
1429.9583,85.2704
1430.9225,85.3761
1431.8867,85.479
1432.8510,85.5616
1433.8152,85.6307
1434.7794,85.7019
1435.7437,85.7779
1436.7079,85.8257
1437.6721,85.785
1438.6364,85.618
1439.6006,85.3345
1440.5648,84.9678
1441.5291,84.5456
1442.4933,84.0817
1443.4575,83.5789
1444.4218,83.033
1445.3860,82.4387
1446.3502,81.799
1447.3145,81.1368
1448.2787,80.4951
1449.2429,79.9178
1450.2072,79.4257
1451.1714,79.014
1452.1356,78.668
1453.0999,78.3732
1454.0641,78.1204
1455.0283,77.917
1455.9926,77.8141
1456.9568,77.8781
1457.9210,78.0421
1458.8853,78.1328
1459.8495,78.0963
1460.8137,78.0013
1461.7780,77.9455
1462.7422,78.0331
1463.7064,78.3677
1464.6707,78.9919
1465.6349,79.8066
1466.5991,80.6272
1467.5634,81.3443
1468.5276,81.9746
1469.4918,82.6059
1470.4561,83.3465
1471.4203,84.295
1472.3845,85.4649
1473.3488,86.6847
1474.3130,87.6836
1475.2772,88.3368
1476.2415,88.6992
1477.2057,88.8709
1478.1699,88.9258
1479.1342,88.9159
1480.0984,88.8862
1481.0626,88.8761
1482.0269,88.9063
1482.9911,88.9704
1483.9553,89.0422
1484.9196,89.0922
1485.8838,89.1004
1486.8480,89.0641
1487.8123,89.0064
1488.7765,88.9685
1489.7407,88.9613
1490.7050,88.9376
1491.6692,88.8487
1492.6334,88.6883
1493.5977,88.4716
1494.5619,88.2108
1495.5261,87.9134
1496.4904,87.5978
1497.4546,87.2946
1498.4188,87.015
1499.3831,86.7386
1500.3473,86.4498
1501.3115,86.159
1502.2758,85.8829
1503.2400,85.6157
1504.2042,85.3068
1505.1685,84.8549
1506.1327,84.1867
1507.0969,83.4427
1508.0612,82.8743
1509.0254,82.4668
1509.9896,82.0818
1510.9539,81.6703
1511.9181,81.2557
1512.8823,80.9013
1513.8466,80.7033
1514.8108,80.767
1515.7750,81.1508
1516.7393,81.8262
1517.7035,82.725
1518.6677,83.8426
1519.6320,85.2641
1520.5962,87.0366
1521.5604,88.9996
1522.5247,90.8364
1523.4889,92.3454
1524.4531,93.5728
1525.4174,94.6792
1526.3816,95.7508
1527.3458,96.7409
1528.3101,97.5557
1529.2743,98.1593
1530.2385,98.6013
1531.2028,98.981
1532.1670,99.388
1533.1312,99.8339
1534.0955,100.236
1535.0597,100.506
1536.0239,100.632
1536.9882,100.651
1537.9524,100.589
1538.9166,100.445
1539.8809,100.278
1540.8451,100.258
1541.8093,100.44
1542.7736,100.665
1543.7378,100.822
1544.7020,100.901
1545.6663,100.91
1546.6305,100.856
1547.5947,100.752
1548.5590,100.704
1549.5232,100.641
1550.4874,100.563
1551.4517,100.463
1552.4159,100.338
1553.3801,100.196
1554.3444,100.058
1555.3086,99.9289
1556.2728,99.7905
1557.2371,99.6283
1558.2013,99.5162
1559.1655,99.5173
1560.1298,99.4765
1561.0940,99.2768
1562.0582,98.9753
1563.0225,98.658
1563.9867,98.3699
1564.9509,98.1178
1565.9152,97.8832
1566.8794,97.6339
1567.8436,97.3405
1568.8079,96.9995
1569.7721,96.6394
1570.7363,96.2955
1571.7006,95.9828
1572.6648,95.6872
1573.6290,95.3642
1574.5933,94.9529
1575.5575,94.4295
1576.5217,93.861
1577.4860,93.3456
1578.4502,92.9031
1579.4144,92.4899
1580.3787,92.0635
1581.3429,91.6013
1582.3071,91.0999
1583.2714,90.5736
1584.2356,90.0438
1585.1998,89.5233
1586.1641,89.0117
1587.1283,88.5042
1588.0925,88.0031
1589.0568,87.518
1590.0210,87.0584
1590.9852,86.6273
1591.9495,86.223
1592.9137,85.8464
1593.8779,85.5029
1594.8422,85.1988
1595.8064,84.9339
1596.7706,84.6991
1597.7349,84.483
1598.6991,84.2784
1599.6633,84.0854
1600.6276,83.9107
1601.5918,83.7628
1602.5560,83.6467
1603.5203,83.5595
1604.4845,83.4918
1605.4487,83.435
1606.4130,83.3907
1607.3772,83.3744
1608.3414,83.4089
1609.3057,83.5039
1610.2699,83.6441
1611.2341,83.8032
1612.1984,83.9717
1613.1626,84.1735
1614.1268,84.4695
1615.0911,84.9423
1616.0553,85.624
1617.0195,86.3939
1617.9838,87.0471
1618.9480,87.5011
1619.9122,87.8291
1620.8765,88.1504
1621.8407,88.5477
1622.8049,89.0333
1623.7692,89.5472
1624.7334,90.0083
1625.6976,90.3857
1626.6619,90.7086
1627.6261,91.0136
1628.5903,91.3026
1629.5546,91.5503
1630.5188,91.7411
1631.4830,91.8855
1632.4473,92.0036
1633.4115,92.1074
1634.3757,92.2105
1635.3400,92.3492
1636.3042,92.5379
1637.2684,92.7087
1638.2327,92.7988
1639.1969,92.8201
1640.1611,92.8141
1641.1254,92.8098
1642.0896,92.815
1643.0538,92.8174
1644.0181,92.7863
1644.9823,92.6926
1645.9465,92.5536
1646.9108,92.4388
1647.8750,92.3938
1648.8392,92.4135
1649.8035,92.4815
1650.7677,92.5672
1651.7319,92.613
1652.6962,92.5879
1653.6604,92.525
1654.6246,92.3997
1655.5889,92.1711
1656.5531,91.8947
1657.5173,91.6448
1658.4816,91.4507
1659.4458,91.2977
1660.4100,91.1517
1661.3743,90.9894
1662.3385,90.8142
1663.3027,90.6401
1664.2670,90.4732
1665.2312,90.3121
1666.1954,90.147
1667.1597,89.9583
1668.1239,89.731
1669.0881,89.4844
1670.0524,89.2695
1671.0166,89.1179
1671.9808,89.0175
1672.9451,88.9417
1673.9093,88.8655
1674.8735,88.7604
1675.8378,88.5982
1676.8020,88.3694
1677.7662,88.0978
1678.7305,87.8296
1679.6947,87.6031
1680.6589,87.4219
1681.6232,87.2486
1682.5874,87.0318
1683.5516,86.7677
1684.5159,86.4974
1685.4801,86.2203
1686.4443,85.9077
1687.4086,85.562
1688.3728,85.2082
1689.3370,84.8711
1690.3013,84.5672
1691.2655,84.2984
1692.2297,84.0461
1693.1940,83.7718
1694.1582,83.4322
1695.1224,83.009
1696.0867,82.5412
1697.0509,82.1208
1698.0151,81.8259
1698.9794,81.6398
1699.9436,81.4622
1700.9078,81.2133
1701.8721,80.8984
1702.8363,80.5797
1703.8005,80.3205
1704.7648,80.1568
1705.7290,80.091
1706.6932,80.0959
1707.6575,80.1309
1708.6217,80.1666
1709.5859,80.1978
1710.5502,80.2346
1711.5144,80.2869
1712.4786,80.3571
1713.4429,80.4469
1714.4071,80.578
1715.3713,80.8169
1716.3356,81.2469
1717.2998,81.8316
1718.2640,82.3728
1719.2283,82.7283
1720.1925,82.9307
1721.1567,83.0867
1722.1210,83.2786
1723.0852,83.5356
1724.0494,83.8414
1725.0137,84.1582
1725.9779,84.4524
1726.9421,84.7121
1727.9064,84.9457
1728.8706,85.1723
1729.8348,85.4149
1730.7991,85.7025
1731.7633,86.0753
1732.7275,86.5641
1733.6918,87.1206
1734.6560,87.6017
1735.6202,87.9107
1736.5845,88.09
1737.5487,88.2482
1738.5129,88.4704
1739.4772,88.7831
1740.4414,89.1565
1741.4056,89.5303
1742.3699,89.8576
1743.3341,90.1323
1744.2983,90.3783
1745.2626,90.6222
1746.2268,90.8825
1747.1910,91.1784
1748.1553,91.539
1749.1195,91.9817
1750.0837,92.4653
1751.0480,92.8944
1752.0122,93.2007
1752.9764,93.3928
1753.9407,93.5267
1754.9049,93.657
1755.8691,93.811
1756.8334,93.9871
1757.7976,94.1694
1758.7618,94.3478
1759.7261,94.5263
1760.6903,94.7154
1761.6545,94.9147
1762.6188,95.1069
1763.5830,95.2721
1764.5472,95.4065
1765.5115,95.5227
1766.4757,95.6348
1767.4399,95.7467
1768.4042,95.853
1769.3684,95.9516
1770.3326,96.0618
1771.2969,96.2232
1772.2611,96.4564
1773.2253,96.7225
1774.1896,96.9557
1775.1538,97.1311
1776.1180,97.2733
1777.0823,97.4203
1778.0465,97.5945
1779.0107,97.7947
1779.9750,98.0037
1780.9392,98.203
1781.9034,98.3833
1782.8677,98.5447
1783.8319,98.6866
1784.7961,98.8031
1785.7604,98.8876
1786.7246,98.9434
1787.6888,98.985
1788.6531,99.0275
1789.6173,99.076
1790.5815,99.1277
1791.5458,99.1821
1792.5100,99.2378
1793.4742,99.2802
1794.4385,99.2958
1795.4027,99.2942
1796.3669,99.2984
1797.3312,99.3239
1798.2954,99.3712
1799.2596,99.4319
1800.2239,99.4973
1801.1881,99.5599
1802.1523,99.6126
1803.1166,99.6514
1804.0808,99.6902
1805.0450,99.7283
1806.0093,99.76
1806.9735,99.7874
1807.9377,99.8124
1808.9020,99.8403
1809.8662,99.878
1810.8304,99.9291
1811.7947,99.9891
1812.7589,100.049
1813.7231,100.102
1814.6874,100.149
1815.6516,100.189
1816.6158,100.224
1817.5801,100.251
1818.5443,100.27
1819.5085,100.286
1820.4728,100.303
1821.4370,100.326
1822.4012,100.355
1823.3655,100.385
1824.3297,100.408
1825.2939,100.418
1826.2582,100.412
1827.2224,100.4
1828.1866,100.394
1829.1509,100.409
1830.1151,100.444
1831.0793,100.481
1832.0436,100.5
1833.0078,100.496
1833.9720,100.483
1834.9363,100.475
1835.9005,100.474
1836.8647,100.481
1837.8290,100.49
1838.7932,100.505
1839.7574,100.532
1840.7217,100.572
1841.6859,100.62
1842.6501,100.658
1843.6144,100.679
1844.5786,100.681
1845.5428,100.668
1846.5071,100.645
1847.4713,100.623
1848.4355,100.615
1849.3998,100.624
1850.3640,100.645
1851.3282,100.665
1852.2925,100.678
1853.2567,100.682
1854.2209,100.681
1855.1852,100.677
1856.1494,100.672
1857.1136,100.667
1858.0779,100.663
1859.0421,100.663
1860.0063,100.666
1860.9706,100.668
1861.9348,100.663
1862.8990,100.648
1863.8633,100.623
1864.8275,100.593
1865.7917,100.564
1866.7560,100.547
1867.7202,100.558
1868.6844,100.604
1869.6487,100.667
1870.6129,100.715
1871.5771,100.732
1872.5414,100.729
1873.5056,100.721
1874.4698,100.718
1875.4341,100.72
1876.3983,100.722
1877.3625,100.724
1878.3268,100.723
1879.2910,100.721
1880.2552,100.718
1881.2195,100.713
1882.1837,100.703
1883.1479,100.69
1884.1122,100.677
1885.0764,100.666
1886.0406,100.662
1887.0049,100.664
1887.9691,100.668
1888.9333,100.672
1889.8976,100.668
1890.8618,100.655
1891.8260,100.632
1892.7903,100.607
1893.7545,100.588
1894.7188,100.579
1895.6830,100.581
1896.6472,100.588
1897.6115,100.594
1898.5757,100.593
1899.5399,100.583
1900.5042,100.57
1901.4684,100.555
1902.4326,100.541
1903.3969,100.527
1904.3611,100.51
1905.3253,100.488
1906.2896,100.463
1907.2538,100.438
1908.2180,100.42
1909.1823,100.41
1910.1465,100.408
1911.1107,100.407
1912.0750,100.402
1913.0392,100.396
1914.0034,100.395
1914.9677,100.402
1915.9319,100.415
1916.8961,100.425
1917.8604,100.422
1918.8246,100.4
1919.7888,100.361
1920.7531,100.317
1921.7173,100.283
1922.6815,100.268
1923.6458,100.271
1924.6100,100.283
1925.5742,100.293
1926.5385,100.297
1927.5027,100.296
1928.4669,100.292
1929.4312,100.286
1930.3954,100.277
1931.3596,100.267
1932.3239,100.257
1933.2881,100.253
1934.2523,100.258
1935.2166,100.269
1936.1808,100.282
1937.1450,100.293
1938.1093,100.296
1939.0735,100.294
1940.0377,100.286
1941.0020,100.275
1941.9662,100.265
1942.9304,100.259
1943.8947,100.259
1944.8589,100.265
1945.8231,100.277
1946.7874,100.295
1947.7516,100.318
1948.7158,100.342
1949.6801,100.363
1950.6443,100.379
1951.6085,100.39
1952.5728,100.399
1953.5370,100.409
1954.5012,100.421
1955.4655,100.433
1956.4297,100.444
1957.3939,100.453
1958.3582,100.46
1959.3224,100.467
1960.2866,100.474
1961.2509,100.479
1962.2151,100.482
1963.1793,100.483
1964.1436,100.483
1965.1078,100.487
1966.0720,100.496
1967.0363,100.513
1968.0005,100.535
1968.9647,100.555
1969.9290,100.57
1970.8932,100.58
1971.8574,100.585
1972.8217,100.589
1973.7859,100.593
1974.7501,100.598
1975.7144,100.603
1976.6786,100.607
1977.6428,100.61
1978.6071,100.612
1979.5713,100.613
1980.5355,100.613
1981.4998,100.613
1982.4640,100.613
1983.4282,100.612
1984.3925,100.611
1985.3567,100.609
1986.3209,100.606
1987.2852,100.603
1988.2494,100.6
1989.2136,100.598
1990.1779,100.597
1991.1421,100.599
1992.1063,100.605
1993.0706,100.612
1994.0348,100.618
1994.9990,100.62
1995.9633,100.62
1996.9275,100.619
1997.8917,100.618
1998.8560,100.618
1999.8202,100.62
2000.7844,100.624
2001.7487,100.628
2002.7129,100.63
2003.6771,100.628
2004.6414,100.622
2005.6056,100.614
2006.5698,100.605
2007.5341,100.597
2008.4983,100.593
2009.4625,100.593
2010.4268,100.594
2011.3910,100.595
2012.3552,100.592
2013.3195,100.585
2014.2837,100.576
2015.2479,100.565
2016.2122,100.557
2017.1764,100.553
2018.1406,100.554
2019.1049,100.557
2020.0691,100.56
2021.0333,100.56
2021.9976,100.559
2022.9618,100.555
2023.9260,100.551
2024.8903,100.548
2025.8545,100.545
2026.8187,100.542
2027.7830,100.54
2028.7472,100.538
2029.7114,100.536
2030.6757,100.532
2031.6399,100.526
2032.6041,100.519
2033.5684,100.511
2034.5326,100.506
2035.4968,100.503
2036.4611,100.502
2037.4253,100.5
2038.3895,100.495
2039.3538,100.487
2040.3180,100.478
2041.2822,100.471
2042.2465,100.468
2043.2107,100.469
2044.1749,100.471
2045.1392,100.473
2046.1034,100.472
2047.0676,100.467
2048.0320,100.459
2048.9961,100.451
2049.9604,100.442
2050.9246,100.435
2051.8889,100.428
2052.8530,100.423
2053.8174,100.42
2054.7815,100.416
2055.7458,100.413
2056.7100,100.409
2057.6743,100.405
2058.6384,100.4
2059.6028,100.394
2060.5669,100.388
2061.5313,100.38
2062.4954,100.372
2063.4597,100.367
2064.4238,100.365
2065.3882,100.368
2066.3523,100.375
2067.3167,100.383
2068.2808,100.392
2069.2451,100.398
2070.2092,100.401
2071.1736,100.402
2072.1377,100.401
2073.1021,100.4
2074.0662,100.4
2075.0305,100.4
2075.9946,100.4
2076.9590,100.399
2077.9231,100.397
2078.8875,100.393
2079.8516,100.389
2080.8159,100.384
2081.7800,100.379
2082.7444,100.375
2083.7085,100.372
2084.6729,100.372
2085.6370,100.374
2086.6013,100.378
2087.5654,100.383
2088.5298,100.386
2089.4939,100.385
2090.4583,100.38
2091.4224,100.37
2092.3867,100.36
2093.3508,100.353
2094.3152,100.349
2095.2793,100.35
2096.2437,100.352
2097.2078,100.355
2098.1721,100.354
2099.1362,100.348
2100.1006,100.338
2101.0647,100.327
2102.0291,100.318
2102.9932,100.311
2103.9575,100.309
2104.9216,100.31
2105.8860,100.312
2106.8501,100.312
2107.8145,100.308
2108.7786,100.3
2109.7429,100.289
2110.7070,100.278
2111.6714,100.271
2112.6355,100.268
2113.5999,100.271
2114.5640,100.279
2115.5283,100.288
2116.4924,100.294
2117.4568,100.297
2118.4209,100.294
2119.3853,100.288
2120.3494,100.28
2121.3137,100.273
2122.2778,100.268
2123.2422,100.266
2124.2063,100.267
2125.1707,100.269
2126.1348,100.272
2127.0991,100.276
2128.0632,100.28
2129.0276,100.286
2129.9917,100.292
2130.9561,100.296
2131.9202,100.299
2132.8845,100.3
2133.8486,100.3
2134.8130,100.3
2135.7771,100.305
2136.7415,100.313
2137.7056,100.324
2138.6699,100.337
2139.6340,100.348
2140.5984,100.357
2141.5625,100.364
2142.5269,100.37
2143.4910,100.376
2144.4553,100.382
2145.4194,100.389
2146.3838,100.397
2147.3479,100.405
2148.3123,100.413
2149.2764,100.419
2150.2407,100.423
2151.2048,100.425
2152.1692,100.425
2153.1333,100.425
2154.0977,100.425
2155.0618,100.428
2156.0261,100.434
2156.9902,100.442
2157.9546,100.451
2158.9187,100.459
2159.8831,100.465
2160.8472,100.472
2161.8115,100.478
2162.7756,100.483
2163.7400,100.487
2164.7041,100.49
2165.6685,100.489
2166.6326,100.487
2167.5969,100.483
2168.5610,100.48
2169.5254,100.479
2170.4895,100.481
2171.4539,100.484
2172.4180,100.489
2173.3823,100.493
2174.3464,100.496
2175.3108,100.499
2176.2749,100.501
2177.2393,100.502
2178.2034,100.504
2179.1677,100.504
2180.1318,100.503
2181.0962,100.5
2182.0603,100.495
2183.0247,100.489
2183.9888,100.485
2184.9531,100.484
2185.9172,100.487
2186.8816,100.493
2187.8457,100.501
2188.8101,100.509
2189.7742,100.516
2190.7385,100.522
2191.7026,100.525
2192.6670,100.527
2193.6311,100.529
2194.5955,100.531
2195.5596,100.534
2196.5239,100.537
2197.4880,100.539
2198.4524,100.539
2199.4165,100.536
2200.3809,100.533
2201.3450,100.53
2202.3093,100.529
2203.2734,100.531
2204.2378,100.534
2205.2019,100.537
2206.1663,100.539
2207.1304,100.54
2208.0947,100.542
2209.0588,100.543
2210.0232,100.544
2210.9873,100.544
2211.9517,100.542
2212.9158,100.537
2213.8801,100.531
2214.8442,100.525
2215.8086,100.521
2216.7727,100.519
2217.7371,100.518
2218.7012,100.516
2219.6655,100.512
2220.6296,100.507
2221.5940,100.503
2222.5581,100.501
2223.5225,100.502
2224.4866,100.502
2225.4509,100.501
2226.4150,100.496
2227.3794,100.487
2228.3435,100.475
2229.3079,100.462
2230.2720,100.45
2231.2363,100.439
2232.2004,100.43
2233.1648,100.422
2234.1289,100.415
2235.0933,100.409
2236.0574,100.404
2237.0217,100.398
2237.9858,100.392
2238.9502,100.384
2239.9143,100.375
2240.8787,100.365
2241.8428,100.355
2242.8071,100.344
2243.7712,100.334
2244.7356,100.324
2245.6997,100.314
2246.6641,100.303
2247.6282,100.293
2248.5925,100.284
2249.5566,100.276
2250.5210,100.27
2251.4851,100.262
2252.4495,100.251
2253.4136,100.237
2254.3779,100.22
2255.3420,100.201
2256.3064,100.183
2257.2705,100.168
2258.2349,100.156
2259.1990,100.146
2260.1633,100.138
2261.1274,100.131
2262.0918,100.122
2263.0559,100.114
2264.0203,100.105
2264.9844,100.098
2265.9487,100.091
2266.9128,100.085
2267.8772,100.078
2268.8413,100.068
2269.8057,100.055
2270.7698,100.041
2271.7341,100.028
2272.6982,100.02
2273.6626,100.018
2274.6267,100.022
2275.5911,100.03
2276.5552,100.038
2277.5195,100.046
2278.4836,100.052
2279.4480,100.056
2280.4121,100.058
2281.3765,100.057
2282.3406,100.052
2283.3049,100.042
2284.2690,100.027
2285.2334,100.008
2286.1975,99.9863
2287.1619,99.9634
2288.1260,99.9413
2289.0903,99.9209
2290.0544,99.9021
2291.0188,99.8842
2291.9829,99.8666
2292.9473,99.8494
2293.9114,99.8333
2294.8757,99.8201
2295.8398,99.8112
2296.8042,99.808
2297.7683,99.8115
2298.7327,99.8225
2299.6968,99.8417
2300.6611,99.8687
2301.6252,99.9009
2302.5896,99.9338
2303.5537,99.9615
2304.5181,99.9794
2305.4822,99.9861
2306.4465,99.9855
2307.4106,99.986
2308.3750,99.9965
2309.3391,100.023
2310.3035,100.064
2311.2676,100.114
2312.2319,100.161
2313.1960,100.201
2314.1604,100.231
2315.1245,100.256
2316.0889,100.284
2317.0530,100.32
2318.0173,100.365
2318.9814,100.409
2319.9458,100.436
2320.9099,100.426
2321.8743,100.363
2322.8384,100.246
2323.8027,100.093
2324.7668,99.9389
2325.7312,99.82
2326.6953,99.7618
2327.6597,99.7672
2328.6238,99.8145
2329.5881,99.8657
2330.5522,99.8824
2331.5166,99.8437
2332.4807,99.7538
2333.4451,99.6369
2334.4092,99.5222
2335.3735,99.4299
2336.3376,99.3646
2337.3020,99.3173
2338.2661,99.2717
2339.2305,99.2158
2340.1946,99.1535
2341.1589,99.1162
2342.1230,99.1578
2343.0874,99.3125
2344.0515,99.5255
2345.0159,99.6628
2345.9800,99.6367
2346.9443,99.4837
2347.9084,99.3116
2348.8728,99.2131
2349.8369,99.2198
2350.8013,99.2968
2351.7654,99.3677
2352.7297,99.3636
2353.6938,99.2744
2354.6582,99.1466
2355.6223,99.0187
2356.5867,98.8842
2357.5508,98.7265
2358.5151,98.5632
2359.4792,98.439
2360.4436,98.3837
2361.4077,98.3935
2362.3721,98.4531
2363.3362,98.5597
2364.3005,98.7196
2365.2646,98.9303
2366.2290,99.1715
2367.1931,99.4142
2368.1575,99.6341
2369.1216,99.8185
2370.0859,99.9662
2371.0500,100.082
2372.0144,100.172
2372.9785,100.236
2373.9429,100.268
2374.9070,100.259
2375.8713,100.204
2376.8354,100.108
2377.7998,99.9815
2378.7639,99.841
2379.7283,99.7135
2380.6924,99.6138
2381.6567,99.5377
2382.6208,99.4877
2383.5852,99.4618
2384.5493,99.4553
2385.5137,99.4615
2386.4778,99.4734
2387.4421,99.4852
2388.4063,99.4933
2389.3706,99.4973
2390.3347,99.4993
2391.2991,99.5023
2392.2632,99.5089
2393.2275,99.5194
2394.1917,99.5327
2395.1560,99.5465
2396.1201,99.5594
2397.0845,99.5712
2398.0486,99.5825
2399.0129,99.594
2399.9771,99.6052
2400.9414,99.6144
2401.9055,99.6196
2402.8699,99.6199
2403.8340,99.6169
2404.7983,99.6133
2405.7625,99.6124
2406.7268,99.6162
2407.6909,99.6241
2408.6553,99.6339
2409.6194,99.6434
2410.5837,99.6514
2411.5479,99.6587
2412.5122,99.6671
2413.4763,99.6775
2414.4407,99.6901
2415.4048,99.7037
2416.3691,99.7173
2417.3333,99.7308
2418.2976,99.7444
2419.2617,99.7578
2420.2261,99.77
2421.1902,99.7792
2422.1545,99.7848
2423.1187,99.788
2424.0830,99.7919
2425.0471,99.7995
2426.0115,99.812
2426.9756,99.8278
2427.9399,99.8435
2428.9041,99.8567
2429.8684,99.8667
2430.8325,99.8745
2431.7969,99.8817
2432.7610,99.889
2433.7253,99.8958
2434.6895,99.9017
2435.6538,99.907
2436.6179,99.9132
2437.5823,99.9222
2438.5464,99.9346
2439.5107,99.9493
2440.4749,99.9641
2441.4392,99.9772
2442.4033,99.9881
2443.3677,99.9972
2444.3318,100.006
2445.2961,100.014
2446.2603,100.02
2447.2246,100.025
2448.1887,100.027
2449.1531,100.027
2450.1172,100.028
2451.0815,100.031
2452.0457,100.038
2453.0100,100.047
2453.9741,100.057
2454.9385,100.066
2455.9026,100.072
2456.8669,100.074
2457.8311,100.076
2458.7954,100.077
2459.7595,100.08
2460.7239,100.084
2461.6880,100.091
2462.6523,100.098
2463.6165,100.106
2464.5808,100.114
2465.5449,100.12
2466.5093,100.124
2467.4734,100.126
2468.4377,100.127
2469.4019,100.127
2470.3662,100.128
2471.3303,100.131
2472.2947,100.138
2473.2588,100.147
2474.2231,100.158
2475.1873,100.167
2476.1516,100.174
2477.1157,100.175
2478.0801,100.172
2479.0442,100.168
2480.0085,100.166
2480.9727,100.169
2481.9370,100.177
2482.9011,100.187
2483.8655,100.196
2484.8296,100.203
2485.7939,100.208
2486.7581,100.212
2487.7224,100.217
2488.6865,100.225
2489.6509,100.234
2490.6150,100.245
2491.5793,100.253
2492.5435,100.259
2493.5078,100.263
2494.4719,100.264
2495.4363,100.267
2496.4004,100.272
2497.3647,100.281
2498.3289,100.293
2499.2932,100.307
2500.2573,100.319
2501.2217,100.329
2502.1858,100.338
2503.1501,100.347
2504.1143,100.358
2505.0786,100.37
2506.0427,100.382
2507.0071,100.393
2507.9712,100.401
2508.9355,100.406
2509.8997,100.408
2510.8640,100.409
2511.8281,100.409
2512.7925,100.41
2513.7566,100.414
2514.7209,100.423
2515.6851,100.436
2516.6494,100.452
2517.6135,100.467
2518.5779,100.478
2519.5420,100.485
2520.5063,100.487
2521.4705,100.489
2522.4348,100.493
2523.3989,100.5
2524.3633,100.51
2525.3274,100.519
2526.2917,100.527
2527.2559,100.534
2528.2202,100.541
2529.1843,100.549
2530.1487,100.56
2531.1128,100.57
2532.0771,100.578
2533.0413,100.583
2534.0056,100.586
2534.9697,100.59
2535.9341,100.596
2536.8982,100.606
2537.8625,100.619
2538.8267,100.633
2539.7910,100.644
2540.7551,100.652
2541.7195,100.657
2542.6836,100.66
2543.6479,100.663
2544.6121,100.669
2545.5764,100.678
2546.5405,100.689
2547.5049,100.702
2548.4690,100.713
2549.4333,100.723
2550.3975,100.732
2551.3618,100.741
2552.3259,100.75
2553.2903,100.76
2554.2544,100.77
2555.2188,100.778
2556.1829,100.786
2557.1472,100.794
2558.1113,100.805
2559.0757,100.819
2560.0398,100.834
2561.0042,100.847
2561.9683,100.856
2562.9326,100.858
2563.8967,100.857
2564.8611,100.855
2565.8252,100.857
2566.7896,100.865
2567.7537,100.876
2568.7180,100.887
2569.6821,100.896
2570.6465,100.902
2571.6106,100.906
2572.5750,100.91
2573.5391,100.916
2574.5034,100.923
2575.4675,100.93
2576.4319,100.936
2577.3960,100.942
2578.3604,100.947
2579.3245,100.954
2580.2888,100.963
2581.2529,100.972
2582.2173,100.981
2583.1814,100.988
2584.1458,100.993
2585.1099,100.997
2586.0742,101
2587.0383,101.004
2588.0027,101.007
2588.9668,101.008
2589.9312,101.006
2590.8953,101.003
2591.8596,101.001
2592.8237,100.999
2593.7881,101
2594.7522,101.004
2595.7166,101.009
2596.6807,101.015
2597.6450,101.021
2598.6091,101.03
2599.5735,101.039
2600.5376,101.05
2601.5020,101.06
2602.4661,101.07
2603.4304,101.078
2604.3945,101.085
2605.3589,101.092
2606.3230,101.1
2607.2874,101.107
2608.2515,101.114
2609.2158,101.12
2610.1799,101.124
2611.1443,101.126
2612.1084,101.129
2613.0728,101.131
2614.0369,101.134
2615.0012,101.138
2615.9653,101.142
2616.9297,101.146
2617.8938,101.15
2618.8582,101.156
2619.8223,101.162
2620.7866,101.169
2621.7507,101.177
2622.7151,101.184
2623.6792,101.19
2624.6436,101.196
2625.6077,101.201
2626.5720,101.207
2627.5361,101.214
2628.5005,101.22
2629.4646,101.224
2630.4290,101.225
2631.3931,101.224
2632.3574,101.223
2633.3215,101.223
2634.2859,101.227
2635.2500,101.235
2636.2144,101.243
2637.1785,101.251
2638.1428,101.257
2639.1069,101.262
2640.0713,101.267
2641.0354,101.274
2641.9998,101.282
2642.9639,101.292
2643.9282,101.302
2644.8923,101.311
2645.8567,101.318
2646.8208,101.325
2647.7852,101.33
2648.7493,101.332
2649.7136,101.33
2650.6777,101.325
2651.6421,101.322
2652.6062,101.323
2653.5706,101.331
2654.5347,101.346
2655.4990,101.366
2656.4631,101.386
2657.4275,101.403
2658.3916,101.416
2659.3560,101.424
2660.3201,101.431
2661.2844,101.438
2662.2485,101.449
2663.2129,101.465
2664.1770,101.483
2665.1414,101.503
2666.1055,101.523
2667.0698,101.541
2668.0339,101.556
2668.9983,101.568
2669.9624,101.577
2670.9268,101.586
2671.8909,101.596
2672.8552,101.609
2673.8193,101.626
2674.7837,101.645
2675.7478,101.665
2676.7122,101.682
2677.6763,101.694
2678.6406,101.7
2679.6047,101.701
2680.5691,101.7
2681.5332,101.699
2682.4976,101.699
2683.4617,101.701
2684.4260,101.703
2685.3901,101.705
2686.3545,101.707
2687.3186,101.712
2688.2830,101.721
2689.2471,101.732
2690.2114,101.747
2691.1755,101.761
2692.1399,101.774
2693.1040,101.784
2694.0684,101.792
2695.0325,101.797
2695.9968,101.8
2696.9609,101.8
2697.9253,101.798
2698.8894,101.795
2699.8538,101.79
2700.8179,101.786
2701.7822,101.782
2702.7463,101.78
2703.7107,101.779
2704.6748,101.778
2705.6392,101.774
2706.6033,101.769
2707.5676,101.76
2708.5317,101.751
2709.4961,101.742
2710.4602,101.733
2711.4246,101.726
2712.3887,101.717
2713.3530,101.706
2714.3171,101.692
2715.2815,101.677
2716.2456,101.661
2717.2100,101.648
2718.1741,101.638
2719.1384,101.631
2720.1025,101.626
2721.0669,101.623
2722.0310,101.62
2722.9954,101.617
2723.9595,101.613
2724.9238,101.606
2725.8879,101.596
2726.8523,101.584
2727.8164,101.57
2728.7808,101.557
2729.7449,101.545
2730.7092,101.535
2731.6733,101.525
2732.6377,101.515
2733.6018,101.503
2734.5662,101.489
2735.5303,101.473
2736.4946,101.457
2737.4587,101.44
2738.4231,101.423
2739.3872,101.409
2740.3516,101.398
2741.3157,101.393
2742.2800,101.392
2743.2441,101.397
2744.2085,101.405
2745.1726,101.414
2746.1370,101.419
2747.1011,101.419
2748.0654,101.413
2749.0295,101.401
2749.9939,101.388
2750.9580,101.378
2751.9224,101.371
2752.8865,101.37
2753.8508,101.371
2754.8149,101.37
2755.7793,101.363
2756.7434,101.348
2757.7078,101.328
2758.6719,101.306
2759.6362,101.288
2760.6003,101.273
2761.5647,101.264
2762.5288,101.257
2763.4932,101.249
2764.4573,101.238
2765.4216,101.224
2766.3857,101.208
2767.3501,101.193
2768.3142,101.18
2769.2786,101.171
2770.2427,101.164
2771.2070,101.155
2772.1711,101.141
2773.1355,101.119
2774.0996,101.088
2775.0640,101.051
2776.0281,101.011
2776.9924,100.971
2777.9565,100.931
2778.9209,100.891
2779.8850,100.849
2780.8494,100.806
2781.8135,100.764
2782.7778,100.724
2783.7419,100.688
2784.7063,100.656
2785.6704,100.628
2786.6348,100.598
2787.5989,100.565
2788.5632,100.525
2789.5273,100.477
2790.4917,100.424
2791.4558,100.368
2792.4202,100.312
2793.3843,100.258
2794.3486,100.205
2795.3127,100.152
2796.2771,100.096
2797.2412,100.037
2798.2056,99.9756
2799.1697,99.9123
2800.1340,99.8479
2801.0981,99.7826
2802.0625,99.7168
2803.0266,99.6507
2803.9910,99.5845
2804.9551,99.5177
2805.9194,99.4491
2806.8835,99.3766
2807.8479,99.2977
2808.8120,99.2108
2809.7764,99.115
2810.7405,99.0106
2811.7048,98.8984
2812.6689,98.7796
2813.6333,98.6538
2814.5974,98.5097
2815.5618,98.3597
2816.5259,98.202
2817.4902,98.0335
2818.4543,97.851
2819.4187,97.6519
2820.3828,97.4358
2821.3472,97.204
2822.3113,96.959
2823.2756,96.703
2824.2397,96.4368
2825.2041,96.1591
2826.1682,95.8675
2827.1326,95.5592
2828.0967,95.2322
2829.0610,94.8861
2830.0251,94.5227
2830.9895,94.1453
2831.9536,93.7583
2832.9180,93.3655
2833.8821,92.9698
2834.8464,92.5723
2835.8105,92.1738
2836.7749,91.7757
2837.7390,91.3819
2838.7034,90.9977
2839.6675,90.6281
2840.6318,90.2746
2841.5959,89.9333
2842.5603,89.5957
2843.5244,89.2518
2844.4888,88.8956
2845.4529,88.5288
2846.4172,88.1617
2847.3813,87.8096
2848.3457,87.4862
2849.3098,87.1972
2850.2742,86.9383
2851.2383,86.6968
2852.2026,86.458
2853.1667,86.2116
2854.1311,85.9543
2855.0952,85.689
2856.0596,85.4199
2857.0237,85.1477
2857.9880,84.8681
2858.9521,84.5733
2859.9165,84.2564
2860.8806,83.9149
2861.8450,83.5529
2862.8091,83.1799
2863.7734,82.8081
2864.7375,82.4486
2865.7019,82.1098
2866.6660,81.7956
2867.6304,81.5064
2868.5945,81.2405
2869.5588,80.9955
2870.5229,80.7684
2871.4873,80.5547
2872.4514,80.3479
2873.4158,80.1402
2874.3799,79.9238
2875.3442,79.6928
2876.3083,79.4447
2877.2727,79.1795
2878.2368,78.8997
2879.2012,78.611
2880.1653,78.3238
2881.1296,78.0544
2882.0938,77.8231
2883.0581,77.6486
2884.0222,77.5411
2884.9866,77.4968
2885.9507,77.497
2886.9150,77.5122
2887.8792,77.5112
2888.8435,77.4723
2889.8076,77.3929
2890.7720,77.2911
2891.7361,77.1964
2892.7004,77.129
2893.6646,77.0804
2894.6289,77.0065
2895.5930,76.8453
2896.5574,76.553
2897.5215,76.1389
2898.4858,75.6749
2899.4500,75.2709
2900.4143,75.025
2901.3784,74.9773
2902.3428,75.0947
2903.3069,75.2914
2904.2712,75.4733
2905.2354,75.5762
2906.1997,75.5819
2907.1638,75.5083
2908.1282,75.3888
2909.0923,75.2551
2910.0566,75.1298
2911.0208,75.0253
2911.9851,74.9457
2912.9492,74.886
2913.9136,74.8337
2914.8777,74.7732
2915.8420,74.6926
2916.8062,74.5884
2917.7705,74.4659
2918.7346,74.3352
2919.6990,74.2065
2920.6631,74.0873
2921.6274,73.9822
2922.5916,73.8929
2923.5559,73.8177
2924.5200,73.7527
2925.4844,73.6933
2926.4485,73.6372
2927.4128,73.5866
2928.3770,73.5465
2929.3413,73.5211
2930.3054,73.5115
2931.2698,73.515
2932.2339,73.5295
2933.1982,73.5565
2934.1624,73.6018
2935.1267,73.6721
2936.0908,73.7698
2937.0552,73.8909
2938.0193,74.0259
2938.9836,74.1659
2939.9478,74.3077
2940.9121,74.4566
2941.8762,74.6236
2942.8406,74.8179
2943.8047,75.0398
2944.7690,75.2765
2945.7332,75.5047
2946.6975,75.699
2947.6616,75.8418
2948.6260,75.9294
2949.5901,75.9724
2950.5544,75.9885
2951.5186,75.9936
2952.4829,75.9956
2953.4470,75.9936
2954.4114,75.9832
2955.3755,75.9622
2956.3398,75.9346
2957.3040,75.9095
2958.2683,75.8955
2959.2324,75.8945
2960.1968,75.899
2961.1609,75.8937
2962.1252,75.8621
2963.0894,75.7935
2964.0537,75.6876
2965.0178,75.5541
2965.9822,75.4095
2966.9463,75.2723
2967.9106,75.1615
2968.8748,75.0956
2969.8391,75.0912
2970.8032,75.1595
2971.7676,75.3012
2972.7317,75.5042
2973.6960,75.7463
2974.6602,76.0033
2975.6245,76.2572
2976.5886,76.5013
2977.5530,76.7382
2978.5171,76.9739
2979.4814,77.2106
2980.4456,77.4408
2981.4099,77.6452
2982.3740,77.7953
2983.3384,77.8655
2984.3025,77.8512
2985.2668,77.788
2986.2310,77.7565
2987.1953,77.863
2988.1594,78.1971
2989.1238,78.7857
2990.0879,79.5716
2991.0522,80.4316
2992.0164,81.2289
2992.9807,81.871
2993.9448,82.3418
2994.9092,82.694
2995.8733,83.0097
2996.8376,83.3556
2997.8018,83.7595
2998.7661,84.2132
2999.7302,84.6933
3000.6946,85.181
3001.6587,85.6707
3002.6230,86.1664
3003.5872,86.6739
3004.5515,87.1949
3005.5156,87.7266
3006.4800,88.2627
3007.4441,88.7964
3008.4084,89.322
3009.3726,89.8358
3010.3369,90.3376
3011.3010,90.8298
3012.2654,91.3149
3013.2295,91.7932
3014.1938,92.2615
3015.1580,92.7151
3016.1223,93.1501
3017.0864,93.5657
3018.0508,93.9637
3019.0149,94.3462
3019.9792,94.7145
3020.9434,95.068
3021.9077,95.4066
3022.8718,95.7313
3023.8362,96.044
3024.8003,96.346
3025.7646,96.6367
3026.7288,96.9137
3027.6931,97.1748
3028.6572,97.42
3029.6216,97.6516
3030.5857,97.8732
3031.5500,98.0869
3032.5142,98.292
3033.4785,98.486
3034.4426,98.6665
3035.4070,98.833
3036.3711,98.9866
3037.3354,99.1291
3038.2996,99.2605
3039.2639,99.3789
3040.2280,99.4813
3041.1924,99.5656
3042.1565,99.6329
3043.1208,99.6871
3044.0850,99.7335
3045.0493,99.777
3046.0134,99.8198
3046.9778,99.8604
3047.9419,99.8947
3048.9063,99.9176
3049.8704,99.9256
3050.8347,99.9002
3051.7988,99.8594
3052.7632,99.8141
3053.7273,99.771
3054.6917,99.7348
3055.6558,99.7066
3056.6201,99.6836
3057.5842,99.6609
3058.5486,99.6327
3059.5127,99.5946
3060.4771,99.5448
3061.4412,99.4847
3062.4055,99.419
3063.3696,99.3542
3064.3340,99.2963
3065.2981,99.2484
3066.2625,99.2093
3067.2266,99.1744
3068.1909,99.1381
3069.1550,99.0967
3070.1194,99.0498
3071.0835,98.9991
3072.0479,98.9465
3073.0120,98.8932
3073.9763,98.8386
3074.9404,98.7818
3075.9048,98.7227
3076.8689,98.6629
3077.8333,98.6044
3078.7974,98.5491
3079.7617,98.4971
3080.7258,98.447
3081.6902,98.3963
3082.6543,98.3432
3083.6187,98.2865
3084.5828,98.2261
3085.5471,98.1627
3086.5112,98.0974
3087.4756,98.0309
3088.4397,97.9639
3089.4041,97.8961
3090.3682,97.8268
3091.3325,97.7551
3092.2966,97.6806
3093.2610,97.6035
3094.2251,97.5247
3095.1895,97.4455
3096.1536,97.3669
3097.1179,97.2895
3098.0820,97.2137
3099.0464,97.1392
3100.0105,97.0656
3100.9749,96.992
3101.9390,96.9176
3102.9033,96.8425
3103.8674,96.7679
3104.8318,96.6954
3105.7959,96.6258
3106.7603,96.5579
3107.7244,96.4885
3108.6887,96.4135
3109.6528,96.3303
3110.6172,96.2387
3111.5813,96.1411
3112.5457,96.041
3113.5098,95.9415
3114.4741,95.8447
3115.4382,95.752
3116.4026,95.6645
3117.3667,95.5829
3118.3311,95.5073
3119.2952,95.4363
3120.2595,95.3675
3121.2236,95.2981
3122.1880,95.2265
3123.1521,95.1527
3124.1165,95.0774
3125.0806,95.0008
3126.0449,94.9215
3127.0090,94.837
3127.9734,94.7454
3128.9375,94.6471
3129.9019,94.5458
3130.8660,94.447
3131.8303,94.3557
3132.7944,94.2742
3133.7588,94.2009
3134.7229,94.1313
3135.6873,94.0604
3136.6514,93.9849
3137.6157,93.9035
3138.5798,93.8172
3139.5442,93.7277
3140.5083,93.6367
3141.4727,93.5448
3142.4368,93.4518
3143.4011,93.357
3144.3652,93.2598
3145.3296,93.1608
3146.2937,93.0616
3147.2581,92.9647
3148.2222,92.8721
3149.1865,92.7845
3150.1506,92.7003
3151.1150,92.6168
3152.0791,92.5311
3153.0435,92.4417
3154.0076,92.3485
3154.9719,92.2527
3155.9360,92.1556
3156.9004,92.058
3157.8645,91.9603
3158.8289,91.8628
3159.7930,91.7656
3160.7573,91.6685
3161.7214,91.5709
3162.6858,91.4721
3163.6499,91.3714
3164.6143,91.2695
3165.5784,91.1679
3166.5427,91.0694
3167.5068,90.9759
3168.4712,90.8877
3169.4353,90.8218
3170.3997,90.7367
3171.3638,90.6472
3172.3281,90.551
3173.2922,90.4477
3174.2566,90.3392
3175.2207,90.2287
3176.1851,90.1199
3177.1492,90.0157
3178.1135,89.9175
3179.0776,89.8254
3180.0420,89.7375
3181.0061,89.6513
3181.9705,89.564
3182.9346,89.4741
3183.8989,89.3816
3184.8630,89.2872
3185.8274,89.192
3186.7915,89.0964
3187.7559,89.0006
3188.7200,88.9049
3189.6843,88.81
3190.6484,88.7163
3191.6128,88.6228
3192.5769,88.5274
3193.5413,88.4278
3194.5054,88.3236
3195.4697,88.2175
3196.4338,88.1143
3197.3982,88.0185
3198.3623,87.9314
3199.3267,87.8509
3200.2908,87.7736
3201.2551,87.6964
3202.2192,87.6182
3203.1836,87.5388
3204.1477,87.4578
3205.1121,87.3737
3206.0762,87.286
3207.0405,87.1952
3208.0046,87.1035
3208.9690,87.0131
3209.9331,86.9245
3210.8975,86.8371
3211.8616,86.75
3212.8259,86.6648
3213.7900,86.5844
3214.7544,86.5115
3215.7185,86.4451
3216.6829,86.3803
3217.6470,86.31
3218.6113,86.2291
3219.5754,86.1368
3220.5398,86.0372
3221.5039,85.9366
3222.4683,85.841
3223.4324,85.7539
3224.3967,85.6772
3225.3608,85.6105
3226.3252,85.5522
3227.2893,85.4988
3228.2537,85.446
3229.2178,85.3889
3230.1821,85.3249
3231.1462,85.2539
3232.1106,85.1788
3233.0747,85.1036
3234.0391,85.0319
3235.0032,84.9651
3235.9675,84.9026
3236.9316,84.8419
3237.8960,84.7799
3238.8601,84.7138
3239.8245,84.6423
3240.7886,84.5663
3241.7529,84.4889
3242.7170,84.4146
3243.6814,84.3482
3244.6455,84.2925
3245.6099,84.2466
3246.5740,84.2058
3247.5383,84.164
3248.5024,84.1159
3249.4668,84.0596
3250.4309,83.9971
3251.3953,83.9322
3252.3594,83.8684
3253.3237,83.807
3254.2878,83.7472
3255.2522,83.688
3256.2163,83.6305
3257.1807,83.5775
3258.1448,83.532
3259.1091,83.4939
3260.0732,83.459
3261.0376,83.4201
3262.0017,83.3712
3262.9661,83.3105
3263.9302,83.2422
3264.8945,83.1733
3265.8586,83.1103
3266.8230,83.0549
3267.7871,83.0038
3268.7515,82.9508
3269.7156,82.8914
3270.6799,82.8258
3271.6440,82.759
3272.6084,82.6988
3273.5725,82.6507
3274.5369,82.6152
3275.5010,82.5873
3276.4653,82.5587
3277.4294,82.5232
3278.3938,82.4788
3279.3579,82.429
3280.3223,82.3801
3281.2864,82.3378
3282.2507,82.3036
3283.2148,82.2742
3284.1792,82.243
3285.1433,82.2031
3286.1077,82.1509
3287.0718,82.0871
3288.0361,82.0167
3289.0002,81.9466
3289.9646,81.8833
3290.9287,81.8311
3291.8931,81.7913
3292.8572,81.7628
3293.8215,81.7421
3294.7856,81.724
3295.7500,81.7017
3296.7141,81.6685
3297.6785,81.6208
3298.6426,81.5602
3299.6069,81.4942
3300.5710,81.4329
3301.5354,81.3842
3302.4995,81.3496
3303.4639,81.3244
3304.4280,81.3006
3305.3923,81.2727
3306.3564,81.2402
3307.3208,81.2069
3308.2849,81.1775
3309.2493,81.1538
3310.2134,81.134
3311.1777,81.1146
3312.1418,81.0932
3313.1062,81.0697
3314.0703,81.0455
3315.0347,81.0216
3315.9988,80.9972
3316.9631,80.9701
3317.9272,80.9385
3318.8916,80.902
3319.8557,80.8621
3320.8201,80.8221
3321.7842,80.7851
3322.7485,80.7541
3323.7126,80.7307
3324.6770,80.715
3325.6411,80.7056
3326.6055,80.6991
3327.5696,80.6912
3328.5339,80.6768
3329.4980,80.6521
3330.4624,80.6162
3331.4265,80.5722
3332.3909,80.5268
3333.3550,80.4885
3334.3193,80.4634
3335.2834,80.4522
3336.2478,80.4495
3337.2119,80.4464
3338.1763,80.4359
3339.1404,80.4163
3340.1047,80.3914
3341.0688,80.367
3342.0332,80.3464
3342.9973,80.3287
3343.9617,80.3106
3344.9258,80.2898
3345.8901,80.2679
3346.8542,80.2496
3347.8186,80.2396
3348.7827,80.2392
3349.7471,80.2457
3350.7112,80.2544
3351.6755,80.2606
3352.6396,80.2618
3353.6040,80.2571
3354.5681,80.2468
3355.5325,80.232
3356.4966,80.2151
3357.4609,80.1995
3358.4250,80.1878
3359.3894,80.1801
3360.3535,80.1735
3361.3179,80.1638
3362.2820,80.1492
3363.2463,80.1322
3364.2104,80.1192
3365.1748,80.1168
3366.1389,80.1281
3367.1033,80.1507
3368.0674,80.1783
3369.0317,80.2042
3369.9958,80.2237
3370.9602,80.2348
3371.9243,80.2377
3372.8887,80.2337
3373.8528,80.2253
3374.8171,80.2165
3375.7813,80.2119
3376.7456,80.2159
3377.7097,80.2298
3378.6741,80.2519
3379.6382,80.2773
3380.6025,80.3009
3381.5667,80.3189
3382.5310,80.3298
3383.4951,80.3343
3384.4595,80.3341
3385.4236,80.3314
3386.3879,80.3287
3387.3521,80.3294
3388.3164,80.3371
3389.2805,80.3544
3390.2449,80.3813
3391.2090,80.4145
3392.1733,80.449
3393.1375,80.4811
3394.1018,80.5112
3395.0659,80.5432
3396.0303,80.5815
3396.9944,80.6265
3397.9587,80.6739
3398.9229,80.7161
3399.8872,80.7479
3400.8513,80.7693
3401.8157,80.7856
3402.7798,80.8035
3403.7441,80.8277
3404.7083,80.859
3405.6726,80.8957
3406.6367,80.9367
3407.6011,80.9816
3408.5652,81.0306
3409.5295,81.082
3410.4937,81.1321
3411.4580,81.1768
3412.4221,81.2142
3413.3865,81.2457
3414.3506,81.2747
3415.3149,81.3051
3416.2791,81.339
3417.2434,81.3775
3418.2075,81.4221
3419.1719,81.4749
3420.1360,81.5376
3421.1003,81.6087
3422.0645,81.6833
3423.0288,81.755
3423.9929,81.8191
3424.9573,81.8755
3425.9214,81.9285
3426.8857,81.9839
3427.8499,82.0461
3428.8142,82.1156
3429.7783,82.1886
3430.7427,82.2596
3431.7068,82.3246
3432.6711,82.3831
3433.6353,82.4381
3434.5996,82.4938
3435.5637,82.5531
3436.5281,82.6155
3437.4922,82.6787
3438.4565,82.7397
3439.4207,82.7972
3440.3850,82.8526
3441.3491,82.9089
3442.3135,82.9688
3443.2776,83.0338
3444.2419,83.1034
3445.2061,83.1765
3446.1704,83.2521
3447.1345,83.3302
3448.0989,83.4116
3449.0630,83.4971
3450.0273,83.5867
3450.9915,83.679
3451.9558,83.7708
3452.9199,83.8572
3453.8843,83.9338
3454.8484,83.9988
3455.8127,84.0547
3456.7769,84.1074
3457.7412,84.1639
3458.7053,84.2286
3459.6697,84.3021
3460.6338,84.3804
3461.5981,84.4585
3462.5623,84.5337
3463.5266,84.6078
3464.4907,84.6863
3465.4551,84.7746
3466.4192,84.8741
3467.3835,84.9799
3468.3477,85.0826
3469.3120,85.1733
3470.2761,85.2489
3471.2405,85.3137
3472.2046,85.3773
3473.1689,85.4485
3474.1331,85.5312
3475.0974,85.6223
3476.0615,85.7149
3477.0259,85.8037
3477.9900,85.8886
3478.9543,85.9744
3479.9185,86.0663
3480.8828,86.1661
3481.8469,86.2696
3482.8113,86.3699
3483.7754,86.4622
3484.7397,86.5476
3485.7039,86.6321
3486.6682,86.7227
3487.6323,86.8231
3488.5967,86.9305
3489.5608,87.038
3490.5251,87.1384
3491.4893,87.2292
3492.4536,87.3147
3493.4177,87.4034
3494.3821,87.5031
3495.3462,87.6148
3496.3105,87.73
3497.2747,87.8351
3498.2390,87.921
3499.2031,87.9895
3500.1675,88.0553
3501.1316,88.1391
3502.0959,88.2562
3503.0601,88.4041
3504.0244,88.5625
3504.9885,88.7087
3505.9529,88.8324
3506.9170,88.939
3507.8813,89.0424
3508.8455,89.1542
3509.8098,89.2764
3510.7739,89.4015
3511.7383,89.5204
3512.7024,89.6307
3513.6667,89.738
3514.6309,89.8501
3515.5952,89.9699
3516.5593,90.0931
3517.5237,90.2107
3518.4878,90.3163
3519.4521,90.41
3520.4163,90.4988
3521.3806,90.5918
3522.3447,90.6949
3523.3091,90.8078
3524.2732,90.926
3525.2375,91.0464
3526.2017,91.1708
3527.1660,91.3042
3528.1301,91.4496
3529.0945,91.6028
3530.0586,91.7538
3531.0229,91.894
3531.9871,92.0217
3532.9514,92.142
3533.9155,92.2641
3534.8799,92.3952
3535.8440,92.5363
3536.8083,92.6804
3537.7725,92.8154
3538.7368,92.9311
3539.7009,93.0247
3540.6653,93.1014
3541.6294,93.1733
3542.5938,93.2563
3543.5579,93.3671
3544.5222,93.5149
3545.4863,93.692
3546.4507,93.8753
3547.4148,94.0413
3548.3792,94.1825
3549.3433,94.309
3550.3076,94.4388
3551.2717,94.5863
3552.2361,94.7542
3553.2002,94.9309
3554.1646,95.0988
3555.1287,95.2464
3556.0930,95.3732
3557.0571,95.4859
3558.0215,95.5906
3558.9856,95.6879
3559.9500,95.7733
3560.9141,95.8413
3561.8784,95.8912
3562.8425,95.9292
3563.8069,95.9697
3564.7710,96.0396
3565.7354,96.176
3566.6995,96.3963
3567.6638,96.6602
3568.6279,96.897
3569.5923,97.0713
3570.5564,97.195
3571.5208,97.2956
3572.4849,97.3911
3573.4492,97.4855
3574.4133,97.5764
3575.3777,97.6628
3576.3418,97.7481
3577.3062,97.8372
3578.2703,97.9309
3579.2346,98.0234
3580.1987,98.1052
3581.1631,98.1693
3582.1272,98.2163
3583.0916,98.2534
3584.0557,98.2902
3585.0200,98.3397
3585.9841,98.4199
3586.9485,98.5397
3587.9126,98.674
3588.8770,98.7766
3589.8411,98.8268
3590.8054,98.8411
3591.7695,98.8486
3592.7339,98.8697
3593.6980,98.9092
3594.6624,98.9579
3595.6265,99.0005
3596.5908,99.0285
3597.5549,99.0506
3598.5193,99.0869
3599.4834,99.1534
3600.4478,99.2478
3601.4119,99.3496
3602.3762,99.4372
3603.3403,99.5042
3604.3047,99.5596
3605.2688,99.6178
3606.2332,99.6891
3607.1973,99.7714
3608.1616,99.8478
3609.1257,99.8947
3610.0901,99.9002
3611.0542,99.8745
3612.0186,99.8422
3612.9829,99.826
3613.9470,99.835
3614.9114,99.864
3615.8755,99.9019
3616.8398,99.9412
3617.8040,99.9823
3618.7683,100.027
3619.7324,100.061
3620.6968,100.043
3621.6609,99.9729
3622.6252,99.8775
3623.5894,99.7916
3624.5537,99.7376
3625.5178,99.7135
3626.4822,99.7006
3627.4463,99.6905
3628.4106,99.6927
3629.3748,99.6947
3630.3391,99.6583
3631.3032,99.5775
3632.2676,99.4844
3633.2317,99.41
3634.1960,99.3615
3635.1602,99.326
3636.1245,99.2834
3637.0886,99.2199
3638.0530,99.1323
3639.0171,99.0242
3639.9814,98.901
3640.9456,98.7678
3641.9099,98.6314
3642.8740,98.4995
3643.8384,98.3758
3644.8025,98.2497
3645.7668,98.0907
3646.7310,97.8713
3647.6953,97.6334
3648.6594,97.5053
3649.6238,97.5226
3650.5879,97.5541
3651.5522,97.5053
3652.5164,97.3871
3653.4807,97.2357
3654.4448,97.0669
3655.4092,96.8834
3656.3733,96.6948
3657.3376,96.5206
3658.3018,96.3798
3659.2661,96.2834
3660.2302,96.2333
3661.1946,96.2202
3662.1587,96.2255
3663.1230,96.2295
3664.0872,96.2226
3665.0515,96.2049
3666.0156,96.179
3666.9800,96.1432
3667.9441,96.0991
3668.9084,96.0605
3669.8726,96.0355
3670.8369,96.0042
3671.8010,95.9404
3672.7654,95.8426
3673.7295,95.7484
3674.6938,95.7388
3675.6580,95.8853
3676.6223,96.147
3677.5864,96.3962
3678.5508,96.5495
3679.5149,96.6004
3680.4792,96.5736
3681.4434,96.4971
3682.4077,96.4002
3683.3718,96.3143
3684.3362,96.2622
3685.3003,96.246
3686.2646,96.2439
3687.2288,96.2308
3688.1931,96.217
3689.1572,96.2527
3690.1216,96.3603
3691.0857,96.5045
3692.0500,96.6485
3693.0142,96.7867
3693.9785,96.9276
3694.9426,97.0766
3695.9070,97.2325
3696.8711,97.3919
3697.8354,97.5534
3698.7996,97.7194
3699.7639,97.8949
3700.7280,98.083
3701.6924,98.2756
3702.6565,98.4506
3703.6208,98.5867
3704.5850,98.6795
3705.5493,98.7394
3706.5134,98.7776
3707.4778,98.7977
3708.4419,98.8076
3709.4063,98.8438
3710.3704,98.9664
3711.3347,99.1914
3712.2988,99.4536
3713.2632,99.6306
3714.2273,99.7027
3715.1917,99.7029
3716.1558,99.6692
3717.1201,99.6235
3718.0842,99.5745
3719.0486,99.5268
3720.0127,99.4873
3720.9771,99.4643
3721.9412,99.4628
3722.9055,99.4829
3723.8696,99.5211
3724.8340,99.5707
3725.7981,99.6223
3726.7625,99.6685
3727.7266,99.7085
3728.6909,99.746
3729.6550,99.7806
3730.6194,99.8026
3731.5835,99.7977
3732.5479,99.7663
3733.5120,99.7454
3734.4763,99.7911
3735.4404,99.9032
3736.4048,100.006
3737.3689,100.045
3738.3333,100.042
3739.2974,100.061
3740.2617,100.146
3741.2258,100.297
3742.1902,100.458
3743.1543,100.552
3744.1187,100.521
3745.0828,100.376
3746.0471,100.173
3747.0112,99.9804
3747.9756,99.841
3748.9397,99.7807
3749.9041,99.822
3750.8682,99.9545
3751.8325,100.089
3752.7966,100.133
3753.7610,100.084
3754.7251,99.9957
3755.6895,99.916
3756.6536,99.8662
3757.6179,99.853
3758.5820,99.8749
3759.5464,99.9173
3760.5105,99.9581
3761.4749,99.9845
3762.4390,99.9981
3763.4033,100.006
3764.3674,100.011
3765.3318,100.015
3766.2959,100.014
3767.2603,100.009
3768.2244,100.005
3769.1887,100.01
3770.1528,100.025
3771.1172,100.043
3772.0813,100.054
3773.0457,100.054
3774.0098,100.045
3774.9741,100.034
3775.9382,100.02
3776.9026,100.001
3777.8667,99.982
3778.8311,99.9673
3779.7952,99.9556
3780.7595,99.9381
3781.7236,99.9106
3782.6880,99.8784
3783.6521,99.8535
3784.6165,99.8483
3785.5806,99.8688
3786.5449,99.9111
3787.5090,99.9627
3788.4734,100.01
3789.4375,100.045
3790.4019,100.064
3791.3660,100.064
3792.3303,100.042
3793.2944,99.9956
3794.2588,99.9279
3795.2229,99.8541
3796.1873,99.7959
3797.1514,99.7683
3798.1157,99.7701
3799.0798,99.7861
3800.0442,99.8018
3801.0083,99.8126
3801.9727,99.8199
3802.9368,99.8264
3803.9011,99.8405
3804.8652,99.873
3805.8296,99.9245
3806.7937,99.9782
3807.7581,100.007
3808.7222,99.9948
3809.6865,99.9554
3810.6506,99.9226
3811.6150,99.9204
3812.5791,99.9421
3813.5435,99.9563
3814.5076,99.9338
3815.4719,99.8732
3816.4360,99.7979
3817.4004,99.7351
3818.3645,99.7025
3819.3289,99.7078
3820.2930,99.7458
3821.2573,99.7901
3822.2214,99.8031
3823.1858,99.7704
3824.1499,99.7133
3825.1143,99.6662
3826.0784,99.6515
3827.0427,99.6715
3828.0068,99.7129
3828.9712,99.7571
3829.9353,99.7901
3830.8997,99.8068
3831.8638,99.8097
3832.8281,99.8033
3833.7922,99.7884
3834.7566,99.7599
3835.7207,99.712
3836.6851,99.6489
3837.6492,99.5914
3838.6135,99.5635
3839.5776,99.5729
3840.5420,99.6123
3841.5061,99.6723
3842.4705,99.7421
3843.4346,99.8029
3844.3989,99.8311
3845.3630,99.8141
3846.3274,99.7641
3847.2915,99.7158
3848.2559,99.7082
3849.2200,99.7622
3850.1843,99.8649
3851.1484,99.9763
3852.1128,100.071
3853.0769,100.157
3854.0413,100.194
3855.0054,100.122
3855.9697,99.9693
3856.9338,99.8219
3857.8982,99.7373
3858.8623,99.7213
3859.8267,99.741
3860.7908,99.7513
3861.7551,99.726
3862.7192,99.6779
3863.6836,99.6445
3864.6477,99.6503
3865.6121,99.6915
3866.5762,99.7475
3867.5405,99.7954
3868.5046,99.8184
3869.4690,99.8139
3870.4331,99.794
3871.3975,99.773
3872.3616,99.7562
3873.3259,99.7424
3874.2900,99.7326
3875.2544,99.7318
3876.2185,99.7425
3877.1829,99.7598
3878.1470,99.7718
3879.1113,99.7691
3880.0754,99.7532
3881.0398,99.7377
3882.0039,99.7386
3882.9683,99.7645
3883.9324,99.8112
3884.8967,99.8619
3885.8608,99.8947
3886.8252,99.897
3887.7893,99.8731
3888.7537,99.8378
3889.7178,99.8053
3890.6821,99.7852
3891.6462,99.7804
3892.6106,99.7826
3893.5747,99.7802
3894.5391,99.7732
3895.5032,99.7698
3896.4675,99.7713
3897.4316,99.7673
3898.3960,99.748
3899.3601,99.7168
3900.3245,99.689
3901.2886,99.6789
3902.2529,99.6923
3903.2170,99.7248
3904.1814,99.7616
3905.1455,99.7854
3906.1099,99.7898
3907.0740,99.782
3908.0383,99.7736
3909.0024,99.7709
3909.9668,99.7727
3910.9309,99.7753
3911.8953,99.7769
3912.8594,99.7795
3913.8237,99.7857
3914.7878,99.7959
3915.7522,99.8076
3916.7163,99.816
3917.6807,99.8138
3918.6448,99.7943
3919.6091,99.7569
3920.5732,99.7109
3921.5376,99.67
3922.5017,99.6451
3923.4661,99.6389
3924.4302,99.6449
3925.3945,99.65
3926.3586,99.6441
3927.3230,99.6267
3928.2871,99.6059
3929.2515,99.5933
3930.2156,99.6005
3931.1799,99.6331
3932.1440,99.685
3933.1084,99.7384
3934.0725,99.776
3935.0369,99.7905
3936.0010,99.785
3936.9653,99.7663
3937.9294,99.74
3938.8938,99.7095
3939.8579,99.6787
3940.8223,99.6537
3941.7864,99.6422
3942.7507,99.6474
3943.7148,99.664
3944.6792,99.681
3945.6433,99.6876
3946.6077,99.6789
3947.5718,99.6575
3948.5361,99.6339
3949.5002,99.6191
3950.4646,99.618
3951.4287,99.6266
3952.3931,99.6368
3953.3572,99.6421
3954.3215,99.6399
3955.2856,99.6317
3956.2500,99.6213
3957.2141,99.6128
3958.1785,99.6092
3959.1426,99.6122
3960.1069,99.6224
3961.0710,99.6391
3962.0354,99.6586
3962.9995,99.6752
3963.9639,99.6831
3964.9280,99.6788
3965.8923,99.6627
3966.8564,99.6387
3967.8208,99.6121
3968.7849,99.5886
3969.7493,99.5718
3970.7134,99.5636
3971.6777,99.5633
3972.6418,99.5686
3973.6062,99.576
3974.5703,99.5826
3975.5347,99.587
3976.4988,99.5898
3977.4631,99.5925
3978.4272,99.5959
3979.3916,99.599
3980.3557,99.5995
3981.3201,99.5954
3982.2842,99.5865
3983.2485,99.5745
3984.2126,99.5621
3985.1770,99.5516
3986.1411,99.5437
3987.1055,99.5374
3988.0696,99.53
3989.0339,99.5186
3989.9980,99.5015
3990.9624,99.4806
3991.9265,99.4615
3992.8909,99.4517
3993.8550,99.4567
3994.8193,99.4752
3995.7834,99.4988
3996.7478,99.5152
3997.7119,99.5154
3998.6763,99.4988
3999.6404,99.4733
4000.6047,99.3448

##### Extended Information
[Comments]
Sample name
Comment
User
Division
Company,HANKYONG

[Detailed Information]
Creation date,4/24/2024 10:36 AM

Data array type,Linear data array
Horizontal axis,Wavenumber [cm-1]
Vertical axis,%T
Start,649.893 cm-1
End,4000.6 cm-1
Data interval,0.964233 cm-1
Data points,3476    

[Measurement Information]
Model Name,FT/IR-4700typeA
Serial Number,D056761788

Accessory,ATR PRO ONE
Accessory S/N,C174761809
Incident angle,45 deg

Measurement Date,4/24/2024 10:35 AM

Light Source,Standard
Detector,TGS
Accumulation,32
Resolution,4 cm-1
Zero Filling,On
Apodization,Cosine
Gain,Auto (4)
Aperture,Auto (7.1 mm)
Scanning Speed,Auto (2 mm/sec)
Filter,Auto (30000 Hz)

