TITLE,
DATA TYPE,INFRARED SPECTRUM
ORIGIN,JASCO
OWNER,
DATE,24/04/24
TIME,11:13:10
SPECTROMETER/DATA SYSTEM,
LOCALE,1033
RESOLUTION,
DELTAX,0.964233
XUNITS,1/CM
YUNITS,TRANSMITTANCE
FIRSTX,  649.8934
LASTX, 4000.6047
NPOINTS,    3476
FIRSTY,    99.59990
MAXY,   101.00959
MINY,    49.78027
XYDATA
649.8934,99.5999
650.8576,99.5042
651.8218,99.4785
652.7861,99.519
653.7503,99.6056
654.7145,99.5726
655.6788,99.5095
656.6430,99.4168
657.6072,99.2874
658.5715,99.1309
659.5357,98.9696
660.4999,98.8259
661.4642,98.7043
662.4284,98.5822
663.3926,98.4177
664.3569,98.1631
665.3211,97.7762
666.2853,97.2442
667.2496,96.6492
668.2138,96.2229
669.1780,96.1674
670.1423,96.385
671.1065,96.6375
672.0707,96.7994
673.0350,96.8609
673.9992,96.8599
674.9634,96.8454
675.9277,96.8605
676.8919,96.9314
677.8561,97.0649
678.8204,97.2565
679.7846,97.4972
680.7488,97.7728
681.7131,98.0622
682.6773,98.3424
683.6415,98.5996
684.6058,98.836
685.5700,99.0626
686.5342,99.2838
687.4985,99.485
688.4627,99.6332
689.4269,99.6906
690.3912,99.635
691.3554,99.4877
692.3196,99.3379
693.2839,99.3213
694.2481,99.5185
695.2123,99.8794
696.1766,100.284
697.1408,100.633
698.1050,100.875
699.0693,100.994
700.0335,101.01
700.9977,100.958
701.9620,100.881
702.9262,100.815
703.8904,100.782
704.8547,100.788
705.8189,100.826
706.7831,100.876
707.7474,100.915
708.7116,100.919
709.6758,100.878
710.6401,100.794
711.6043,100.682
712.5685,100.558
713.5328,100.431
714.4970,100.298
715.4612,100.402
716.4255,100.211
717.3897,100.01
718.3539,99.8346
719.3182,99.7291
720.2824,99.7263
721.2466,99.8242
722.2109,99.984
723.1751,100.149
724.1393,100.271
725.1036,100.328
726.0678,100.325
727.0320,100.285
727.9963,100.242
728.9605,100.223
729.9247,100.243
730.8890,100.299
731.8532,100.374
732.8174,100.444
733.7817,100.484
734.7459,100.479
735.7101,100.424
736.6744,100.323
737.6386,100.183
738.6028,100.012
739.5671,99.814
740.5313,99.5949
741.4955,99.3654
742.4598,99.1403
743.4240,98.9354
744.3882,98.7635
745.3525,98.6311
746.3167,98.5375
747.2809,98.4761
748.2452,98.4367
749.2094,98.4073
750.1736,98.3769
751.1379,98.338
752.1021,98.2885
753.0663,98.2313
754.0306,98.1718
754.9948,98.1139
755.9590,98.0575
756.9233,97.9995
757.8875,97.9362
758.8517,97.8668
759.8160,97.7935
760.7802,97.7197
761.7444,97.6472
762.7087,97.5747
763.6729,97.5006
764.6371,97.4272
765.6014,97.3637
766.5656,97.3237
767.5298,97.3195
768.4941,97.3542
769.4583,97.4176
770.4225,97.4885
771.3868,97.5424
772.3510,97.5604
773.3152,97.5353
774.2795,97.4716
775.2437,97.3811
776.2079,97.2765
777.1722,97.1662
778.1364,97.0526
779.1006,96.9342
780.0649,96.8078
781.0291,96.6728
781.9933,96.5318
782.9576,96.391
783.9218,96.2569
784.8860,96.1333
785.8503,96.0195
786.8145,95.9109
787.7787,95.8024
788.7430,95.6917
789.7072,95.5817
790.6714,95.4788
791.6357,95.3888
792.5999,95.3122
793.5641,95.2433
794.5284,95.1715
795.4926,95.0859
796.4568,94.9798
797.4211,94.8522
798.3853,94.7072
799.3495,94.5508
800.3138,94.3883
801.2780,94.2221
802.2422,94.0514
803.2065,93.8726
804.1707,93.6811
805.1349,93.4726
806.0992,93.2442
807.0634,92.9953
808.0276,92.7271
808.9919,92.4426
809.9561,92.1458
810.9203,91.8411
811.8846,91.5333
812.8488,91.2278
813.8130,90.9312
814.7773,90.6512
815.7415,90.3962
816.7057,90.1736
817.6700,89.9885
818.6342,89.8417
819.5984,89.7297
820.5627,89.6468
821.5269,89.5868
822.4911,89.5456
823.4554,89.5216
824.4196,89.5145
825.3839,89.5228
826.3481,89.5424
827.3123,89.5658
828.2766,89.5829
829.2408,89.5823
830.2050,89.5523
831.1693,89.4826
832.1335,89.3655
833.0977,89.1976
834.0620,88.9804
835.0262,88.7203
835.9904,88.4268
836.9547,88.1097
837.9189,87.7768
838.8831,87.4337
839.8474,87.0843
840.8116,86.7333
841.7758,86.3878
842.7401,86.0568
843.7043,85.7501
844.6685,85.4748
845.6328,85.2333
846.5970,85.0233
847.5612,84.8396
848.5255,84.6777
849.4897,84.5361
850.4539,84.4169
851.4182,84.3239
852.3824,84.2592
853.3466,84.221
854.3109,84.2035
855.2751,84.1986
856.2393,84.1998
857.2036,84.2046
858.1678,84.2154
859.1320,84.2374
860.0963,84.275
861.0605,84.3294
862.0247,84.3983
862.9890,84.4791
863.9532,84.5737
864.9174,84.6888
865.8817,84.8337
866.8459,85.0136
867.8101,85.2259
868.7744,85.4605
869.7386,85.7056
870.7028,85.9531
871.6671,86.1984
872.6313,86.4347
873.5955,86.6473
874.5598,86.8139
875.5240,86.9146
876.4882,86.9449
877.4525,86.922
878.4167,86.8778
879.3809,86.8426
880.3452,86.8288
881.3094,86.8278
882.2736,86.8202
883.2379,86.7919
884.2021,86.7442
885.1663,86.6905
886.1306,86.6442
887.0948,86.6089
888.0590,86.5783
889.0233,86.545
889.9875,86.5112
890.9517,86.4908
891.9160,86.5013
892.8802,86.552
893.8444,86.6364
894.8087,86.7352
895.7729,86.8259
896.7371,86.8938
897.7014,86.9365
898.6656,86.9598
899.6298,86.9708
900.5941,86.9715
901.5583,86.9583
902.5225,86.9261
903.4868,86.8733
904.4510,86.805
905.4152,86.7301
906.3795,86.6569
907.3437,86.5882
908.3079,86.5208
909.2722,86.4496
910.2364,86.3742
911.2006,86.3024
912.1649,86.2494
913.1291,86.2312
914.0933,86.2579
915.0576,86.3297
916.0218,86.4393
916.9860,86.5774
917.9503,86.738
918.9145,86.9199
919.8787,87.1256
920.8430,87.3578
921.8072,87.6185
922.7714,87.9086
923.7357,88.228
924.6999,88.5761
925.6641,88.9509
926.6284,89.3499
927.5926,89.7718
928.5568,90.2191
929.5211,90.6993
930.4853,91.2224
931.4495,91.7977
932.4138,92.4307
933.3780,93.1212
934.3422,93.8636
935.3065,94.6466
936.2707,95.4516
937.2349,96.2517
938.1992,97.0131
939.1634,97.7013
940.1276,98.2891
941.0919,98.7641
942.0561,99.1294
943.0203,99.3988
943.9846,99.5881
944.9488,99.7087
945.9130,99.766
946.8773,99.7933
947.8415,99.8465
948.8057,99.8525
949.7700,99.8231
950.7342,99.7693
951.6984,99.6973
952.6627,99.6074
953.6269,99.495
954.5911,99.3534
955.5554,99.1764
956.5196,98.9595
957.4838,98.6998
958.4481,98.3955
959.4123,98.0461
960.3765,97.6529
961.3408,97.2197
962.3050,96.7539
963.2692,96.2654
964.2335,95.7659
965.1977,95.2663
966.1619,94.7755
967.1262,94.3003
968.0904,93.8452
969.0546,93.4141
970.0189,93.0107
970.9831,92.6383
971.9473,92.2989
972.9116,91.9931
973.8758,91.7189
974.8400,91.4722
975.8043,91.2462
976.7685,91.0307
977.7327,90.813
978.6970,90.5788
979.6612,90.3151
980.6254,90.0121
981.5897,89.6647
982.5539,89.2708
983.5181,88.8299
984.4824,88.3428
985.4466,87.813
986.4108,87.2507
987.3751,86.6745
988.3393,86.1098
989.3035,85.5834
990.2678,85.1167
991.2320,84.7211
992.1962,84.3983
993.1605,84.1428
994.1247,83.9468
995.0889,83.8023
996.0532,83.7005
997.0174,83.6304
997.9816,83.5775
998.9459,83.5253
999.9101,83.4577
1000.8743,83.3611
1001.8386,83.223
1002.8028,83.0297
1003.7670,82.7635
1004.7313,82.4035
1005.6955,81.9297
1006.6597,81.3289
1007.6240,80.5982
1008.5882,79.7446
1009.5524,78.7797
1010.5167,77.7152
1011.4809,76.5596
1012.4451,75.3189
1013.4094,73.9997
1014.3736,72.6104
1015.3378,71.162
1016.3021,69.668
1017.2663,68.1447
1018.2305,66.6112
1019.1948,65.0862
1020.1590,63.5827
1021.1232,62.1022
1022.0875,60.6362
1023.0517,59.176
1024.0160,57.7285
1024.9802,56.3258
1025.9445,55.0217
1026.9087,53.8727
1027.8729,52.9144
1028.8372,52.1468
1029.8014,51.5386
1030.7656,51.0457
1031.7299,50.6334
1032.6941,50.2892
1033.6583,50.021
1034.6226,49.8465
1035.5868,49.7803
1036.5510,49.8264
1037.5153,49.9768
1038.4795,50.2137
1039.4437,50.5124
1040.4080,50.8461
1041.3722,51.1918
1042.3364,51.5368
1043.3007,51.8814
1044.2649,52.2376
1045.2291,52.622
1046.1934,53.0495
1047.1576,53.5299
1048.1218,54.0698
1049.0861,54.6748
1050.0503,55.3498
1051.0145,56.095
1051.9788,56.9016
1052.9430,57.7529
1053.9072,58.6324
1054.8715,59.5351
1055.8357,60.4733
1056.7999,61.4687
1057.7642,62.5318
1058.7284,63.6391
1059.6926,64.724
1060.6569,65.6936
1061.6211,66.4666
1062.5853,67.0151
1063.5496,67.3854
1064.5138,67.682
1065.4780,68.02
1066.4423,68.4698
1067.4065,69.0251
1068.3707,69.6095
1069.3350,70.1179
1070.2992,70.4664
1071.2634,70.624
1072.2277,70.6125
1073.1919,70.4828
1074.1561,70.2854
1075.1204,70.0527
1076.0846,69.7986
1077.0488,69.5272
1078.0131,69.2428
1078.9773,68.9522
1079.9415,68.663
1080.9058,68.38
1081.8700,68.1052
1082.8342,67.8396
1083.7985,67.5854
1084.7627,67.3472
1085.7269,67.1325
1086.6912,66.9511
1087.6554,66.8133
1088.6196,66.7247
1089.5839,66.6817
1090.5481,66.6679
1091.5123,66.6571
1092.4766,66.6214
1093.4408,66.5423
1094.4050,66.4168
1095.3693,66.2563
1096.3335,66.0782
1097.2977,65.8954
1098.2620,65.7108
1099.2262,65.5194
1100.1904,65.3143
1101.1547,65.0951
1102.1189,64.8706
1103.0831,64.6576
1104.0474,64.4751
1105.0116,64.34
1105.9758,64.2639
1106.9401,64.2547
1107.9043,64.3188
1108.8685,64.4647
1109.8328,64.7039
1110.7970,65.0513
1111.7612,65.5224
1112.7255,66.1304
1113.6897,66.8829
1114.6539,67.7803
1115.6182,68.8161
1116.5824,69.9799
1117.5466,71.2602
1118.5109,72.6473
1119.4751,74.1329
1120.4393,75.7089
1121.4036,77.3639
1122.3678,79.0819
1123.3320,80.8423
1124.2963,82.6205
1125.2605,84.3909
1126.2247,86.1277
1127.1890,87.8075
1128.1532,89.4094
1129.1174,90.9164
1130.0817,92.3145
1131.0459,93.5925
1132.0101,94.7407
1132.9744,95.751
1133.9386,96.6174
1134.9028,97.3375
1135.8671,97.914
1136.8313,98.3535
1137.7955,98.6651
1138.7598,98.8578
1139.7240,98.9393
1140.6882,98.9155
1141.6525,98.792
1142.6167,98.5607
1143.5809,98.1881
1144.5452,97.7484
1145.5094,97.2606
1146.4736,96.7474
1147.4379,96.2344
1148.4021,95.7464
1149.3663,95.3052
1150.3306,94.9254
1151.2948,94.6134
1152.2590,94.3675
1153.2233,94.18
1154.1875,94.0401
1155.1517,93.9359
1156.1160,93.855
1157.0802,93.7843
1158.0444,93.7092
1159.0087,93.614
1159.9729,93.4834
1160.9371,93.3048
1161.9014,93.0711
1162.8656,92.7818
1163.8298,92.4428
1164.7941,92.063
1165.7583,91.6521
1166.7225,91.2169
1167.6868,90.7615
1168.6510,90.2878
1169.6152,89.7972
1170.5795,89.2917
1171.5437,88.773
1172.5079,88.2416
1173.4722,87.6967
1174.4364,87.1363
1175.4006,86.5593
1176.3649,85.9663
1177.3291,85.359
1178.2933,84.7392
1179.2576,84.1072
1180.2218,83.4623
1181.1860,82.8048
1182.1503,82.1384
1183.1145,81.471
1184.0787,80.8129
1185.0430,80.1736
1186.0072,79.558
1186.9714,78.9657
1187.9357,78.392
1188.8999,77.8305
1189.8641,77.2763
1190.8284,76.7267
1191.7926,76.1815
1192.7568,75.6425
1193.7211,75.1124
1194.6853,74.5944
1195.6495,74.0914
1196.6138,73.6047
1197.5780,73.1333
1198.5422,72.6748
1199.5065,72.2572
1200.4707,71.8148
1201.4349,71.3848
1202.3992,70.9725
1203.3634,70.5844
1204.3276,70.2252
1205.2919,69.8975
1206.2561,69.6017
1207.2203,69.3379
1208.1846,69.1074
1209.1488,68.9134
1210.1130,68.7604
1211.0773,68.6525
1212.0415,68.5917
1213.0057,68.5771
1213.9700,68.6057
1214.9342,68.6748
1215.8984,68.7829
1216.8627,68.9295
1217.8269,69.1134
1218.7911,69.3304
1219.7554,69.5724
1220.7196,69.8298
1221.6838,70.0934
1222.6481,70.3568
1223.6123,70.6158
1224.5765,70.8683
1225.5408,71.1116
1226.5050,71.3421
1227.4692,71.5541
1228.4335,71.7407
1229.3977,71.8957
1230.3619,72.0172
1231.3262,72.111
1232.2904,72.1921
1233.2546,72.2812
1234.2189,72.3954
1235.1831,72.5404
1236.1473,72.7069
1237.1116,72.8783
1238.0758,73.044
1239.0400,73.21
1240.0043,73.3987
1240.9685,73.6355
1241.9327,73.9301
1242.8970,74.2652
1243.8612,74.601
1244.8254,74.8934
1245.7897,75.1148
1246.7539,75.2649
1247.7181,75.3647
1248.6824,75.4416
1249.6466,75.5141
1250.6108,75.585
1251.5751,75.6449
1252.5393,75.6801
1253.5035,75.6802
1254.4678,75.6406
1255.4320,75.5628
1256.3962,75.452
1257.3605,75.3165
1258.3247,75.1669
1259.2889,75.0149
1260.2532,74.8712
1261.2174,74.743
1262.1816,74.6335
1263.1459,74.5427
1264.1101,74.4698
1265.0743,74.4146
1266.0386,74.3783
1267.0028,74.363
1267.9670,74.3717
1268.9313,74.4078
1269.8955,74.475
1270.8597,74.5759
1271.8240,74.7115
1272.7882,74.8808
1273.7524,75.081
1274.7167,75.3088
1275.6809,75.5612
1276.6451,75.8356
1277.6094,76.1297
1278.5736,76.4408
1279.5378,76.765
1280.5021,77.0969
1281.4663,77.4303
1282.4305,77.7586
1283.3948,78.0767
1284.3590,78.3823
1285.3232,78.676
1286.2875,78.961
1287.2517,79.2407
1288.2159,79.5174
1289.1802,79.7904
1290.1444,80.0571
1291.1086,80.3151
1292.0729,80.5639
1293.0371,80.8058
1294.0013,81.0448
1294.9656,81.2847
1295.9298,81.5268
1296.8940,81.7681
1297.8583,82.002
1298.8225,82.2202
1299.7867,82.4149
1300.7510,82.581
1301.7152,82.7169
1302.6794,82.8245
1303.6437,82.9086
1304.6079,82.9733
1305.5721,83.0209
1306.5364,83.0509
1307.5006,83.0611
1308.4648,83.05
1309.4291,83.0184
1310.3933,82.9704
1311.3575,82.9114
1312.3218,82.8456
1313.2860,82.7741
1314.2502,82.6956
1315.2145,82.6096
1316.1787,82.5199
1317.1429,82.4351
1318.1072,82.3652
1319.0714,82.3152
1320.0356,82.2805
1320.9999,82.2489
1321.9641,82.2082
1322.9283,82.1533
1323.8926,82.0892
1324.8568,82.0276
1325.8210,81.9819
1326.7853,81.9619
1327.7495,81.9727
1328.7137,82.0165
1329.6780,82.0949
1330.6422,82.2086
1331.6064,82.3537
1332.5707,82.5191
1333.5349,82.6875
1334.4991,82.8434
1335.4634,82.981
1336.4276,83.1114
1337.3918,83.2616
1338.3561,83.4628
1339.3203,83.7252
1340.2845,84.0214
1341.2488,84.3023
1342.2130,84.5299
1343.1772,84.6933
1344.1415,84.8006
1345.1057,84.8668
1346.0699,84.9052
1347.0342,84.9257
1347.9984,84.9342
1348.9626,84.9319
1349.9269,84.9165
1350.8911,84.8847
1351.8553,84.8363
1352.8196,84.7764
1353.7838,84.7146
1354.7480,84.6594
1355.7123,84.6118
1356.6765,84.5637
1357.6407,84.5037
1358.6050,84.4253
1359.5692,84.3342
1360.5334,84.2516
1361.4977,84.2098
1362.4619,84.2294
1363.4261,84.297
1364.3904,84.3753
1365.3546,84.4357
1366.3188,84.4727
1367.2831,84.495
1368.2473,84.5105
1369.2115,84.52
1370.1758,84.5185
1371.1400,84.5033
1372.1042,84.4807
1373.0685,84.4684
1374.0327,84.4864
1374.9969,84.5401
1375.9612,84.6138
1376.9254,84.6865
1377.8896,84.7516
1378.8539,84.8169
1379.8181,84.8933
1380.7823,84.9827
1381.7466,85.0783
1382.7108,85.1737
1383.6750,85.2741
1384.6393,85.3979
1385.6035,85.565
1386.5677,85.7707
1387.5320,85.9613
1388.4962,86.0537
1389.4604,85.995
1390.4247,85.7945
1391.3889,85.5057
1392.3531,85.2013
1393.3174,84.9619
1394.2816,84.8592
1395.2458,84.9165
1396.2101,85.0772
1397.1743,85.2313
1398.1385,85.2857
1399.1028,85.2093
1400.0670,85.0238
1401.0313,84.7705
1401.9955,84.485
1402.9597,84.1907
1403.9240,83.9045
1404.8882,83.6419
1405.8524,83.4136
1406.8167,83.2179
1407.7809,83.0436
1408.7451,82.8783
1409.7094,82.714
1410.6736,82.5453
1411.6378,82.3685
1412.6021,82.1814
1413.5663,81.9846
1414.5305,81.7789
1415.4948,81.5591
1416.4590,81.3136
1417.4232,81.0381
1418.3875,80.7489
1419.3517,80.4638
1420.3159,80.1766
1421.2802,79.8754
1422.2444,79.5683
1423.2086,79.2776
1424.1729,79.0241
1425.1371,78.8191
1426.1013,78.6666
1427.0656,78.5713
1428.0298,78.5434
1428.9940,78.5937
1429.9583,78.7187
1430.9225,78.893
1431.8867,79.0852
1432.8510,79.2803
1433.8152,79.4801
1434.7794,79.688
1435.7437,79.8901
1436.7079,80.0402
1437.6721,80.0707
1438.6364,79.9461
1439.6006,79.69
1440.5648,79.3524
1441.5291,78.9706
1442.4933,78.5598
1443.4575,78.1208
1444.4218,77.6505
1445.3860,77.1479
1446.3502,76.619
1447.3145,76.0817
1448.2787,75.5641
1449.2429,75.0913
1450.2072,74.6764
1451.1714,74.3243
1452.1356,74.038
1453.0999,73.813
1454.0641,73.6273
1455.0283,73.4483
1455.9926,73.2878
1456.9568,73.2385
1457.9210,73.3116
1458.8853,73.3526
1459.8495,73.2879
1460.8137,73.1876
1461.7780,73.1586
1462.7422,73.3025
1463.7064,73.7114
1464.6707,74.4133
1465.6349,75.2965
1466.5991,76.1715
1467.5634,76.9361
1468.5276,77.62
1469.4918,78.3135
1470.4561,79.11
1471.4203,80.087
1472.3845,81.2589
1473.3488,82.4841
1474.3130,83.5092
1475.2772,84.1944
1476.2415,84.5793
1477.2057,84.7632
1478.1699,84.8253
1479.1342,84.8206
1480.0984,84.7954
1481.0626,84.789
1482.0269,84.8227
1482.9911,84.8914
1483.9553,84.9709
1484.9196,85.0319
1485.8838,85.0498
1486.8480,85.0153
1487.8123,84.9549
1488.7765,84.9339
1489.7407,84.9815
1490.7050,85.0325
1491.6692,85.0114
1492.6334,84.9078
1493.5977,84.746
1494.5619,84.5399
1495.5261,84.2899
1496.4904,84.0097
1497.4546,83.7365
1498.4188,83.4866
1499.3831,83.2351
1500.3473,82.971
1501.3115,82.724
1502.2758,82.5281
1503.2400,82.3741
1504.2042,82.1702
1505.1685,81.7335
1506.1327,80.9238
1507.0969,79.9614
1508.0612,79.2558
1509.0254,78.7926
1509.9896,78.3722
1510.9539,77.9339
1511.9181,77.5087
1512.8823,77.1601
1513.8466,76.9777
1514.8108,77.0631
1515.7750,77.4786
1516.7393,78.2051
1517.7035,79.1808
1518.6677,80.4019
1519.6320,81.9511
1520.5962,83.8697
1521.5604,85.9838
1522.5247,87.9597
1523.4889,89.5909
1524.4531,90.9354
1525.4174,92.1682
1526.3816,93.3766
1527.3458,94.5029
1528.3101,95.4438
1529.2743,96.1641
1530.2385,96.7188
1531.2028,97.2086
1532.1670,97.7208
1533.1312,98.2676
1534.0955,98.7712
1535.0597,99.1521
1536.0239,99.4095
1536.9882,99.5804
1537.9524,99.6529
1538.9166,99.5579
1539.8809,99.3256
1540.8451,99.244
1541.8093,99.4888
1542.7736,99.8461
1543.7378,100.127
1544.7020,100.305
1545.6663,100.398
1546.6305,100.418
1547.5947,100.381
1548.5590,100.312
1549.5232,100.23
1550.4874,100.137
1551.4517,100.021
1552.4159,99.8806
1553.3801,99.737
1554.3444,99.6251
1555.3086,99.559
1556.2728,99.5047
1557.2371,99.4267
1558.2013,99.4095
1559.1655,99.5007
1560.1298,99.4614
1561.0940,99.1295
1562.0582,98.6516
1563.0225,98.1939
1563.9867,97.8313
1564.9509,97.5649
1565.9152,97.3523
1566.8794,97.1339
1567.8436,96.8623
1568.8079,96.5312
1569.7721,96.1736
1570.7363,95.828
1571.7006,95.5146
1572.6648,95.2277
1573.6290,94.9234
1574.5933,94.5302
1575.5575,94.0154
1576.5217,93.4484
1577.4860,92.9263
1578.4502,92.4607
1579.4144,92.0141
1580.3787,91.56
1581.3429,91.0832
1582.3071,90.5758
1583.2714,90.0429
1584.2356,89.5003
1585.1998,88.9611
1586.1641,88.4274
1587.1283,87.8962
1588.0925,87.3689
1589.0568,86.8533
1590.0210,86.3584
1590.9852,85.8882
1591.9495,85.4431
1592.9137,85.0257
1593.8779,84.6441
1594.8422,84.306
1595.8064,84.0119
1596.7706,83.7521
1597.7349,83.5135
1598.6991,83.2877
1599.6633,83.0752
1600.6276,82.8836
1601.5918,82.723
1602.5560,82.599
1603.5203,82.5077
1604.4845,82.4381
1605.4487,82.3805
1606.4130,82.3371
1607.3772,82.3254
1608.3414,82.3696
1609.3057,82.4797
1610.2699,82.639
1611.2341,82.822
1612.1984,83.0231
1613.1626,83.268
1614.1268,83.6122
1615.0911,84.1294
1616.0553,84.8472
1617.0195,85.6416
1617.9838,86.2999
1618.9480,86.7404
1619.9122,87.0519
1620.8765,87.3679
1621.8407,87.7732
1622.8049,88.2739
1623.7692,88.8032
1624.7334,89.2762
1625.6976,89.6614
1626.6619,89.9896
1627.6261,90.298
1628.5903,90.588
1629.5546,90.8375
1630.5188,91.0402
1631.4830,91.2165
1632.4473,91.384
1633.4115,91.5317
1634.3757,91.6406
1635.3400,91.7448
1636.3042,91.8932
1637.2684,92.0322
1638.2327,92.0859
1639.1969,92.0682
1640.1611,92.0369
1641.1254,92.034
1642.0896,92.0696
1643.0538,92.1204
1644.0181,92.1299
1644.9823,92.0408
1645.9465,91.8705
1646.9108,91.7286
1647.8750,91.6966
1648.8392,91.7789
1649.8035,91.961
1650.7677,92.2002
1651.7319,92.4014
1652.6962,92.4943
1653.6604,92.4955
1654.6246,92.351
1655.5889,92.0234
1656.5531,91.6339
1657.5173,91.3158
1658.4816,91.1169
1659.4458,91.0092
1660.4100,90.9323
1661.3743,90.8405
1662.3385,90.7278
1663.3027,90.6058
1664.2670,90.4816
1665.2312,90.3598
1666.1954,90.2365
1667.1597,90.0901
1668.1239,89.8997
1669.0881,89.6867
1670.0524,89.5129
1671.0166,89.414
1671.9808,89.375
1672.9451,89.3679
1673.9093,89.364
1674.8735,89.3213
1675.8378,89.1921
1676.8020,88.9578
1677.7662,88.6567
1678.7305,88.3667
1679.6947,88.155
1680.6589,88.0355
1681.6232,87.9589
1682.5874,87.8514
1683.5516,87.6919
1684.5159,87.4995
1685.4801,87.2439
1686.4443,86.9026
1687.4086,86.52
1688.3728,86.1579
1689.3370,85.8555
1690.3013,85.6248
1691.2655,85.4541
1692.2297,85.3093
1693.1940,85.1373
1694.1582,84.8814
1695.1224,84.5185
1696.0867,84.0999
1697.0509,83.7499
1698.0151,83.5763
1698.9794,83.5532
1699.9436,83.5238
1700.9078,83.3508
1701.8721,83.0303
1702.8363,82.6603
1703.8005,82.3522
1704.7648,82.175
1705.7290,82.1393
1706.6932,82.2022
1707.6575,82.2961
1708.6217,82.3737
1709.5859,82.4297
1710.5502,82.4843
1711.5144,82.5564
1712.4786,82.65
1713.4429,82.7607
1714.4071,82.9031
1715.3713,83.1504
1716.3356,83.6161
1717.2998,84.2806
1718.2640,84.9027
1719.2283,85.2895
1720.1925,85.4753
1721.1567,85.5988
1722.1210,85.7687
1723.0852,86.0228
1724.0494,86.3396
1725.0137,86.6693
1725.9779,86.9678
1726.9421,87.2205
1727.9064,87.4418
1728.8706,87.6623
1729.8348,87.9138
1730.7991,88.2258
1731.7633,88.6303
1732.7275,89.1478
1733.6918,89.7198
1734.6560,90.1862
1735.6202,90.4411
1736.5845,90.5414
1737.5487,90.6191
1738.5129,90.7703
1739.4772,91.0174
1740.4414,91.3199
1741.4056,91.6108
1742.3699,91.8432
1743.3341,92.0163
1744.2983,92.1611
1745.2626,92.3109
1746.2268,92.4879
1747.1910,92.7136
1748.1553,93.0216
1749.1195,93.4356
1750.0837,93.911
1751.0480,94.3339
1752.0122,94.6184
1752.9764,94.771
1753.9407,94.8572
1754.9049,94.9406
1755.8691,95.0527
1756.8334,95.1932
1757.7976,95.3464
1758.7618,95.5013
1759.7261,95.66
1760.6903,95.8306
1761.6545,96.0113
1762.6188,96.184
1763.5830,96.3293
1764.5472,96.4454
1765.5115,96.547
1766.4757,96.6484
1767.4399,96.7502
1768.4042,96.8407
1769.3684,96.9122
1770.3326,96.9831
1771.2969,97.1006
1772.2611,97.2948
1773.2253,97.5253
1774.1896,97.7166
1775.1538,97.8399
1776.1180,97.9259
1777.0823,98.0193
1778.0465,98.1441
1779.0107,98.2981
1779.9750,98.4664
1780.9392,98.6352
1781.9034,98.7982
1782.8677,98.9527
1783.8319,99.0908
1784.7961,99.1984
1785.7604,99.266
1786.7246,99.3005
1787.6888,99.3231
1788.6531,99.3522
1789.6173,99.3885
1790.5815,99.4214
1791.5458,99.4504
1792.5100,99.4821
1793.4742,99.5052
1794.4385,99.5024
1795.4027,99.4841
1796.3669,99.4793
1797.3312,99.5061
1798.2954,99.5618
1799.2596,99.6326
1800.2239,99.7064
1801.1881,99.7749
1802.1523,99.8297
1803.1166,99.8654
1804.0808,99.8824
1805.0450,99.8855
1806.0093,99.8791
1806.9735,99.8658
1807.9377,99.8493
1808.9020,99.8381
1809.8662,99.8441
1810.8304,99.8739
1811.7947,99.9211
1812.7589,99.9716
1813.7231,100.015
1814.6874,100.048
1815.6516,100.07
1816.6158,100.082
1817.5801,100.082
1818.5443,100.072
1819.5085,100.058
1820.4728,100.048
1821.4370,100.047
1822.4012,100.053
1823.3655,100.059
1824.3297,100.053
1825.2939,100.03
1826.2582,99.9893
1827.2224,99.944
1828.1866,99.9139
1829.1509,99.9172
1830.1151,99.9517
1831.0793,99.9891
1832.0436,99.9981
1833.0078,99.9739
1833.9720,99.9347
1834.9363,99.8995
1835.9005,99.8757
1836.8647,99.8606
1837.8290,99.8504
1838.7932,99.8474
1839.7574,99.8598
1840.7217,99.8907
1841.6859,99.9275
1842.6501,99.9481
1843.6144,99.9413
1844.5786,99.9126
1845.5428,99.8696
1846.5071,99.8251
1847.4713,99.7975
1848.4355,99.7902
1849.3998,99.8076
1850.3640,99.8396
1851.3282,99.87
1852.2925,99.8884
1853.2567,99.8938
1854.2209,99.8912
1855.1852,99.886
1856.1494,99.8805
1857.1136,99.8751
1858.0779,99.8713
1859.0421,99.871
1860.0063,99.8736
1860.9706,99.8738
1861.9348,99.8632
1862.8990,99.8366
1863.8633,99.7948
1864.8275,99.7431
1865.7917,99.6899
1866.7560,99.6521
1867.7202,99.6573
1868.6844,99.7215
1869.6487,99.8184
1870.6129,99.8976
1871.5771,99.9339
1872.5414,99.9381
1873.5056,99.9331
1874.4698,99.9327
1875.4341,99.9384
1876.3983,99.9452
1877.3625,99.949
1878.3268,99.9485
1879.2910,99.9449
1880.2552,99.9394
1881.2195,99.9317
1882.1837,99.9208
1883.1479,99.9067
1884.1122,99.8918
1885.0764,99.88
1886.0406,99.8742
1887.0049,99.875
1887.9691,99.8808
1888.9333,99.8882
1889.8976,99.8918
1890.8618,99.8856
1891.8260,99.8682
1892.7903,99.8455
1893.7545,99.8275
1894.7188,99.8228
1895.6830,99.8335
1896.6472,99.8545
1897.6115,99.8758
1898.5757,99.8892
1899.5399,99.8918
1900.5042,99.8859
1901.4684,99.8757
1902.4326,99.864
1903.3969,99.8499
1904.3611,99.8306
1905.3253,99.8034
1906.2896,99.77
1907.2538,99.7372
1908.2180,99.7149
1909.1823,99.7106
1910.1465,99.7228
1911.1107,99.7416
1912.0750,99.7575
1913.0392,99.7684
1914.0034,99.7788
1914.9677,99.792
1915.9319,99.8061
1916.8961,99.8137
1917.8604,99.8051
1918.8246,99.7736
1919.7888,99.7226
1920.7531,99.6675
1921.7173,99.6283
1922.6815,99.6187
1923.6458,99.6379
1924.6100,99.6713
1925.5742,99.7011
1926.5385,99.7174
1927.5027,99.7205
1928.4669,99.7159
1929.4312,99.7089
1930.3954,99.7024
1931.3596,99.697
1932.3239,99.693
1933.2881,99.6912
1934.2523,99.6918
1935.2166,99.6934
1936.1808,99.6933
1937.1450,99.6889
1938.1093,99.6789
1939.0735,99.6633
1940.0377,99.6427
1941.0020,99.62
1941.9662,99.6009
1942.9304,99.5911
1943.8947,99.5916
1944.8589,99.6002
1945.8231,99.6149
1946.7874,99.6352
1947.7516,99.6596
1948.7158,99.6838
1949.6801,99.7024
1950.6443,99.7121
1951.6085,99.7136
1952.5728,99.7112
1953.5370,99.71
1954.5012,99.7134
1955.4655,99.7217
1956.4297,99.733
1957.3939,99.7444
1958.3582,99.7543
1959.3224,99.7616
1960.2866,99.7654
1961.2509,99.7642
1962.2151,99.757
1963.1793,99.7441
1964.1436,99.7288
1965.1078,99.7169
1966.0720,99.7154
1967.0363,99.7285
1968.0005,99.7538
1968.9647,99.783
1969.9290,99.8075
1970.8932,99.8229
1971.8574,99.8299
1972.8217,99.832
1973.7859,99.8327
1974.7501,99.8347
1975.7144,99.8381
1976.6786,99.8417
1977.6428,99.844
1978.6071,99.8443
1979.5713,99.8433
1980.5355,99.8418
1981.4998,99.8404
1982.4640,99.8391
1983.4282,99.8368
1984.3925,99.8325
1985.3567,99.8255
1986.3209,99.8161
1987.2852,99.8054
1988.2494,99.7947
1989.2136,99.7855
1990.1779,99.7798
1991.1421,99.7799
1992.1063,99.7866
1993.0706,99.7976
1994.0348,99.8087
1994.9990,99.8161
1995.9633,99.8185
1996.9275,99.8167
1997.8917,99.8125
1998.8560,99.808
1999.8202,99.8052
2000.7844,99.8048
2001.7487,99.806
2002.7129,99.807
2003.6771,99.8059
2004.6414,99.8016
2005.6056,99.7943
2006.5698,99.7852
2007.5341,99.7765
2008.4983,99.77
2009.4625,99.7661
2010.4268,99.7637
2011.3910,99.7601
2012.3552,99.7527
2013.3195,99.7403
2014.2837,99.7243
2015.2479,99.7086
2016.2122,99.6977
2017.1764,99.6948
2018.1406,99.6992
2019.1049,99.707
2020.0691,99.7136
2021.0333,99.7163
2021.9976,99.7147
2022.9618,99.7104
2023.9260,99.7053
2024.8903,99.7013
2025.8545,99.6994
2026.8187,99.6998
2027.7830,99.7016
2028.7472,99.703
2029.7114,99.7019
2030.6757,99.6972
2031.6399,99.6891
2032.6041,99.6795
2033.5684,99.671
2034.5326,99.6653
2035.4968,99.662
2036.4611,99.6592
2037.4253,99.6543
2038.3895,99.646
2039.3538,99.6351
2040.3180,99.6242
2041.2822,99.6165
2042.2465,99.6134
2043.2107,99.614
2044.1749,99.6158
2045.1392,99.6162
2046.1034,99.6136
2047.0676,99.608
2048.0320,99.6007
2048.9961,99.5934
2049.9604,99.5871
2050.9246,99.5824
2051.8889,99.5788
2052.8530,99.5752
2053.8174,99.5709
2054.7815,99.566
2055.7458,99.5612
2056.7100,99.5572
2057.6743,99.554
2058.6384,99.5502
2059.6028,99.5439
2060.5669,99.5336
2061.5313,99.5199
2062.4954,99.5058
2063.4597,99.4954
2064.4238,99.492
2065.3882,99.4961
2066.3523,99.5051
2067.3167,99.5151
2068.2808,99.5231
2069.2451,99.5284
2070.2092,99.5324
2071.1736,99.5365
2072.1377,99.5419
2073.1021,99.5479
2074.0662,99.5529
2075.0305,99.5554
2075.9946,99.5547
2076.9590,99.5515
2077.9231,99.5474
2078.8875,99.5439
2079.8516,99.5421
2080.8159,99.542
2081.7800,99.5427
2082.7444,99.5434
2083.7085,99.5432
2084.6729,99.5427
2085.6370,99.5427
2086.6013,99.5441
2087.5654,99.5473
2088.5298,99.5512
2089.4939,99.5545
2090.4583,99.5557
2091.4224,99.5542
2092.3867,99.5508
2093.3508,99.5468
2094.3152,99.5437
2095.2793,99.5427
2096.2437,99.5437
2097.2078,99.5459
2098.1721,99.5479
2099.1362,99.5487
2100.1006,99.5466
2101.0647,99.5445
2102.0291,99.5422
2102.9932,99.5407
2103.9575,99.54
2104.9216,99.5396
2105.8860,99.5382
2106.8501,99.5348
2107.8145,99.529
2108.7786,99.5216
2109.7429,99.5137
2110.7070,99.5064
2111.6714,99.5012
2112.6355,99.4991
2113.5999,99.5006
2114.5640,99.5054
2115.5283,99.512
2116.4924,99.518
2117.4568,99.5209
2118.4209,99.5195
2119.3853,99.5144
2120.3494,99.5073
2121.3137,99.5006
2122.2778,99.4958
2123.2422,99.4933
2124.2063,99.4923
2125.1707,99.492
2126.1348,99.4919
2127.0991,99.4925
2128.0632,99.4941
2129.0276,99.497
2129.9917,99.5006
2130.9561,99.504
2131.9202,99.5056
2132.8845,99.505
2133.8486,99.5026
2134.8130,99.4997
2135.7771,99.4983
2136.7415,99.4996
2137.7056,99.504
2138.6699,99.5105
2139.6340,99.5178
2140.5984,99.5245
2141.5625,99.5304
2142.5269,99.5358
2143.4910,99.5417
2144.4553,99.5489
2145.4194,99.5571
2146.3838,99.5657
2147.3479,99.5729
2148.3123,99.5774
2149.2764,99.5783
2150.2407,99.5756
2151.2048,99.5709
2152.1692,99.5663
2153.1333,99.5639
2154.0977,99.5651
2155.0618,99.5696
2156.0261,99.5762
2156.9902,99.5833
2157.9546,99.5902
2158.9187,99.5968
2159.8831,99.6041
2160.8472,99.6126
2161.8115,99.622
2162.7756,99.631
2163.7400,99.6378
2164.7041,99.6411
2165.6685,99.6405
2166.6326,99.6366
2167.5969,99.631
2168.5610,99.6256
2169.5254,99.6221
2170.4895,99.6214
2171.4539,99.6232
2172.4180,99.6267
2173.3823,99.6309
2174.3464,99.6351
2175.3108,99.6394
2176.2749,99.6441
2177.2393,99.6496
2178.2034,99.6553
2179.1677,99.6595
2180.1318,99.6609
2181.0962,99.6586
2182.0603,99.6533
2183.0247,99.6469
2183.9888,99.6415
2184.9531,99.6387
2185.9172,99.6391
2186.8816,99.642
2187.8457,99.6464
2188.8101,99.6509
2189.7742,99.6548
2190.7385,99.6578
2191.7026,99.6601
2192.6670,99.6623
2193.6311,99.665
2194.5955,99.6683
2195.5596,99.6719
2196.5239,99.6749
2197.4880,99.6763
2198.4524,99.6753
2199.4165,99.6722
2200.3809,99.668
2201.3450,99.6638
2202.3093,99.6609
2203.2734,99.6598
2204.2378,99.6603
2205.2019,99.662
2206.1663,99.6643
2207.1304,99.6668
2208.0947,99.6687
2209.0588,99.6694
2210.0232,99.6681
2210.9873,99.6645
2211.9517,99.6593
2212.9158,99.6538
2213.8801,99.6496
2214.8442,99.6477
2215.8086,99.6479
2216.7727,99.6488
2217.7371,99.6487
2218.7012,99.646
2219.6655,99.641
2220.6296,99.6348
2221.5940,99.6293
2222.5581,99.6262
2223.5225,99.6258
2224.4866,99.6273
2225.4509,99.6287
2226.4150,99.628
2227.3794,99.6242
2228.3435,99.6168
2229.3079,99.6066
2230.2720,99.5951
2231.2363,99.5838
2232.2004,99.5741
2233.1648,99.5667
2234.1289,99.5618
2235.0933,99.5588
2236.0574,99.5566
2237.0217,99.5536
2237.9858,99.5485
2238.9502,99.5407
2239.9143,99.5308
2240.8787,99.5198
2241.8428,99.5091
2242.8071,99.4996
2243.7712,99.4913
2244.7356,99.4835
2245.6997,99.4757
2246.6641,99.4675
2247.6282,99.4589
2248.5925,99.45
2249.5566,99.4404
2250.5210,99.4297
2251.4851,99.417
2252.4495,99.4026
2253.4136,99.3871
2254.3779,99.3719
2255.3420,99.3583
2256.3064,99.3468
2257.2705,99.3369
2258.2349,99.3276
2259.1990,99.318
2260.1633,99.3077
2261.1274,99.2971
2262.0918,99.2868
2263.0559,99.2779
2264.0203,99.2707
2264.9844,99.2647
2265.9487,99.2592
2266.9128,99.2528
2267.8772,99.2446
2268.8413,99.2346
2269.8057,99.2238
2270.7698,99.2137
2271.7341,99.2058
2272.6982,99.2008
2273.6626,99.1983
2274.6267,99.1977
2275.5911,99.198
2276.5552,99.1992
2277.5195,99.2019
2278.4836,99.2069
2279.4480,99.2145
2280.4121,99.2239
2281.3765,99.2326
2282.3406,99.2371
2283.3049,99.2335
2284.2690,99.2191
2285.2334,99.1932
2286.1975,99.1583
2287.1619,99.1188
2288.1260,99.0794
2289.0903,99.0431
2290.0544,99.01
2291.0188,98.9788
2291.9829,98.9484
2292.9473,98.9197
2293.9114,98.8954
2294.8757,98.8787
2295.8398,98.8712
2296.8042,98.8726
2297.7683,98.8814
2298.7327,98.8968
2299.6968,98.9195
2300.6611,98.9501
2301.6252,98.9879
2302.5896,99.0286
2303.5537,99.0652
2304.5181,99.0908
2305.4822,99.1023
2306.4465,99.1035
2307.4106,99.1052
2308.3750,99.1205
2309.3391,99.1595
2310.3035,99.223
2311.2676,99.302
2312.2319,99.3819
2313.1960,99.4502
2314.1604,99.503
2315.1245,99.546
2316.0889,99.5909
2317.0530,99.6479
2318.0173,99.7189
2318.9814,99.7932
2319.9458,99.847
2320.9099,99.8495
2321.8743,99.7755
2322.8384,99.6209
2323.8027,99.4119
2324.7668,99.1988
2325.7312,99.0368
2326.6953,98.9627
2327.6597,98.9793
2328.6238,99.0528
2329.5881,99.1265
2330.5522,99.1468
2331.5166,99.0886
2332.4807,98.9646
2333.4451,98.8127
2334.4092,98.6725
2335.3735,98.5668
2336.3376,98.4949
2337.3020,98.4389
2338.2661,98.3763
2339.2305,98.2938
2340.1946,98.2023
2341.1589,98.1481
2342.1230,98.206
2343.0874,98.4215
2344.0515,98.7177
2345.0159,98.9108
2345.9800,98.8825
2346.9443,98.6839
2347.9084,98.4621
2348.8728,98.342
2349.8369,98.365
2350.8013,98.4818
2351.7654,98.5859
2352.7297,98.5818
2353.6938,98.4588
2354.6582,98.2888
2355.6223,98.1357
2356.5867,98.0038
2357.5508,97.8566
2358.5151,97.6923
2359.4792,97.5576
2360.4436,97.4936
2361.4077,97.5085
2362.3721,97.5954
2363.3362,97.753
2364.3005,97.9815
2365.2646,98.2674
2366.2290,98.5828
2367.1931,98.8989
2368.1575,99.1954
2369.1216,99.4604
2370.0859,99.6859
2371.0500,99.8665
2372.0144,99.9992
2372.9785,100.084
2373.9429,100.119
2374.9070,100.105
2375.8713,100.041
2376.8354,99.9325
2377.7998,99.7896
2378.7639,99.6287
2379.7283,99.4684
2380.6924,99.3263
2381.6567,99.2147
2382.6208,99.139
2383.5852,99.0976
2384.5493,99.0838
2385.5137,99.0884
2386.4778,99.1022
2387.4421,99.1181
2388.4063,99.1319
2389.3706,99.1421
2390.3347,99.1491
2391.2991,99.1544
2392.2632,99.1596
2393.2275,99.1656
2394.1917,99.1724
2395.1560,99.1794
2396.1201,99.1861
2397.0845,99.1927
2398.0486,99.1993
2399.0129,99.2067
2399.9771,99.2146
2400.9414,99.2215
2401.9055,99.2259
2402.8699,99.2265
2403.8340,99.2243
2404.7983,99.2214
2405.7625,99.2208
2406.7268,99.2243
2407.6909,99.2316
2408.6553,99.2409
2409.6194,99.25
2410.5837,99.2576
2411.5479,99.264
2412.5122,99.2698
2413.4763,99.2753
2414.4407,99.2801
2415.4048,99.2831
2416.3691,99.2842
2417.3333,99.2846
2418.2976,99.2865
2419.2617,99.2915
2420.2261,99.2994
2421.1902,99.3083
2422.1545,99.3158
2423.1187,99.3204
2424.0830,99.3226
2425.0471,99.3244
2426.0115,99.3281
2426.9756,99.3346
2427.9399,99.3438
2428.9041,99.3543
2429.8684,99.365
2430.8325,99.3751
2431.7969,99.3838
2432.7610,99.3901
2433.7253,99.3932
2434.6895,99.3932
2435.6538,99.3915
2436.6179,99.3901
2437.5823,99.3909
2438.5464,99.3942
2439.5107,99.3992
2440.4749,99.4047
2441.4392,99.4103
2442.4033,99.4167
2443.3677,99.4247
2444.3318,99.4341
2445.2961,99.4434
2446.2603,99.4502
2447.2246,99.4529
2448.1887,99.4516
2449.1531,99.4481
2450.1172,99.4447
2451.0815,99.4432
2452.0457,99.4441
2453.0100,99.4467
2453.9741,99.45
2454.9385,99.4531
2455.9026,99.4557
2456.8669,99.4577
2457.8311,99.4593
2458.7954,99.4604
2459.7595,99.4614
2460.7239,99.4626
2461.6880,99.4641
2462.6523,99.466
2463.6165,99.4677
2464.5808,99.4686
2465.5449,99.4682
2466.5093,99.4664
2467.4734,99.4635
2468.4377,99.4602
2469.4019,99.4572
2470.3662,99.4554
2471.3303,99.4554
2472.2947,99.4576
2473.2588,99.4619
2474.2231,99.4677
2475.1873,99.4734
2476.1516,99.4775
2477.1157,99.4787
2478.0801,99.477
2479.0442,99.4738
2480.0085,99.4713
2480.9727,99.471
2481.9370,99.4733
2482.9011,99.4772
2483.8655,99.481
2484.8296,99.4832
2485.7939,99.4838
2486.7581,99.4836
2487.7224,99.484
2488.6865,99.4855
2489.6509,99.4879
2490.6150,99.4904
2491.5793,99.4923
2492.5435,99.494
2493.5078,99.4963
2494.4719,99.5006
2495.4363,99.5075
2496.4004,99.5162
2497.3647,99.5248
2498.3289,99.5311
2499.2932,99.5335
2500.2573,99.5319
2501.2217,99.5281
2502.1858,99.5249
2503.1501,99.5247
2504.1143,99.5291
2505.0786,99.5374
2506.0427,99.5477
2507.0071,99.5572
2507.9712,99.5632
2508.9355,99.5646
2509.8997,99.5618
2510.8640,99.5566
2511.8281,99.5522
2512.7925,99.5515
2513.7566,99.5562
2514.7209,99.5662
2515.6851,99.5794
2516.6494,99.5924
2517.6135,99.6022
2518.5779,99.6068
2519.5420,99.6069
2520.5063,99.6045
2521.4705,99.6025
2522.4348,99.6029
2523.3989,99.6063
2524.3633,99.6116
2525.3274,99.6174
2526.2917,99.6225
2527.2559,99.6268
2528.2202,99.6305
2529.1843,99.6338
2530.1487,99.6362
2531.1128,99.6364
2532.0771,99.634
2533.0413,99.6295
2534.0056,99.6249
2534.9697,99.6231
2535.9341,99.6261
2536.8982,99.6341
2537.8625,99.6457
2538.8267,99.6586
2539.7910,99.6709
2540.7551,99.6817
2541.7195,99.6912
2542.6836,99.6998
2543.6479,99.7075
2544.6121,99.7139
2545.5764,99.7186
2546.5405,99.7211
2547.5049,99.722
2548.4690,99.7221
2549.4333,99.7226
2550.3975,99.725
2551.3618,99.7301
2552.3259,99.7383
2553.2903,99.7492
2554.2544,99.7615
2555.2188,99.7735
2556.1829,99.7835
2557.1472,99.7909
2558.1113,99.7957
2559.0757,99.7985
2560.0398,99.7996
2561.0042,99.7994
2561.9683,99.7977
2562.9326,99.7952
2563.8967,99.7935
2564.8611,99.7944
2565.8252,99.7997
2566.7896,99.8093
2567.7537,99.8217
2568.7180,99.8343
2569.6821,99.8447
2570.6465,99.8516
2571.6106,99.8552
2572.5750,99.8564
2573.5391,99.8561
2574.5034,99.855
2575.4675,99.8533
2576.4319,99.8512
2577.3960,99.8499
2578.3604,99.8507
2579.3245,99.8545
2580.2888,99.8616
2581.2529,99.8708
2582.2173,99.8798
2583.1814,99.8865
2584.1458,99.8892
2585.1099,99.8878
2586.0742,99.8833
2587.0383,99.8777
2588.0027,99.8727
2588.9668,99.8692
2589.9312,99.8671
2590.8953,99.8656
2591.8596,99.8642
2592.8237,99.8629
2593.7881,99.8625
2594.7522,99.864
2595.7166,99.8677
2596.6807,99.8735
2597.6450,99.8805
2598.6091,99.8878
2599.5735,99.8941
2600.5376,99.8985
2601.5020,99.9006
2602.4661,99.9002
2603.4304,99.898
2604.3945,99.8955
2605.3589,99.8939
2606.3230,99.8944
2607.2874,99.897
2608.2515,99.9011
2609.2158,99.9057
2610.1799,99.9105
2611.1443,99.9156
2612.1084,99.9212
2613.0728,99.9269
2614.0369,99.9318
2615.0012,99.9347
2615.9653,99.9348
2616.9297,99.9328
2617.8938,99.9306
2618.8582,99.9299
2619.8223,99.9315
2620.7866,99.9347
2621.7507,99.9378
2622.7151,99.9392
2623.6792,99.9388
2624.6436,99.9374
2625.6077,99.9371
2626.5720,99.9391
2627.5361,99.9436
2628.5005,99.9497
2629.4646,99.9556
2630.4290,99.9598
2631.3931,99.9619
2632.3574,99.9624
2633.3215,99.9621
2634.2859,99.9619
2635.2500,99.9622
2636.2144,99.9633
2637.1785,99.9653
2638.1428,99.9686
2639.1069,99.9736
2640.0713,99.9799
2641.0354,99.9866
2641.9998,99.992
2642.9639,99.9947
2643.9282,99.9946
2644.8923,99.9931
2645.8567,99.9922
2646.8208,99.9937
2647.7852,99.9979
2648.7493,100.004
2649.7136,100.009
2650.6777,100.014
2651.6421,100.017
2652.6062,100.02
2653.5706,100.025
2654.5347,100.032
2655.4990,100.042
2656.4631,100.054
2657.4275,100.069
2658.3916,100.082
2659.3560,100.092
2660.3201,100.098
2661.2844,100.101
2662.2485,100.102
2663.2129,100.106
2664.1770,100.115
2665.1414,100.13
2666.1055,100.148
2667.0698,100.165
2668.0339,100.18
2668.9983,100.192
2669.9624,100.202
2670.9268,100.213
2671.8909,100.225
2672.8552,100.237
2673.8193,100.249
2674.7837,100.258
2675.7478,100.265
2676.7122,100.271
2677.6763,100.274
2678.6406,100.274
2679.6047,100.271
2680.5691,100.266
2681.5332,100.262
2682.4976,100.259
2683.4617,100.258
2684.4260,100.261
2685.3901,100.265
2686.3545,100.268
2687.3186,100.27
2688.2830,100.272
2689.2471,100.275
2690.2114,100.281
2691.1755,100.29
2692.1399,100.3
2693.1040,100.311
2694.0684,100.319
2695.0325,100.324
2695.9968,100.326
2696.9609,100.326
2697.9253,100.326
2698.8894,100.329
2699.8538,100.334
2700.8179,100.341
2701.7822,100.347
2702.7463,100.349
2703.7107,100.347
2704.6748,100.339
2705.6392,100.328
2706.6033,100.315
2707.5676,100.302
2708.5317,100.292
2709.4961,100.285
2710.4602,100.282
2711.4246,100.28
2712.3887,100.275
2713.3530,100.267
2714.3171,100.254
2715.2815,100.239
2716.2456,100.224
2717.2100,100.213
2718.1741,100.207
2719.1384,100.204
2720.1025,100.204
2721.0669,100.204
2722.0310,100.203
2722.9954,100.201
2723.9595,100.198
2724.9238,100.193
2725.8879,100.186
2726.8523,100.177
2727.8164,100.166
2728.7808,100.154
2729.7449,100.145
2730.7092,100.136
2731.6733,100.128
2732.6377,100.121
2733.6018,100.114
2734.5662,100.109
2735.5303,100.104
2736.4946,100.099
2737.4587,100.093
2738.4231,100.085
2739.3872,100.074
2740.3516,100.065
2741.3157,100.059
2742.2800,100.059
2743.2441,100.064
2744.2085,100.074
2745.1726,100.084
2746.1370,100.09
2747.1011,100.092
2748.0654,100.087
2749.0295,100.078
2749.9939,100.067
2750.9580,100.06
2751.9224,100.057
2752.8865,100.059
2753.8508,100.064
2754.8149,100.065
2755.7793,100.06
2756.7434,100.046
2757.7078,100.025
2758.6719,100.002
2759.6362,99.98
2760.6003,99.9634
2761.5647,99.952
2762.5288,99.9437
2763.4932,99.9353
2764.4573,99.9243
2765.4216,99.9103
2766.3857,99.8942
2767.3501,99.8789
2768.3142,99.8664
2769.2786,99.8574
2770.2427,99.85
2771.2070,99.8402
2772.1711,99.8244
2773.1355,99.8008
2774.0996,99.7713
2775.0640,99.7387
2776.0281,99.7065
2776.9924,99.6761
2777.9565,99.6458
2778.9209,99.6128
2779.8850,99.5749
2780.8494,99.5329
2781.8135,99.4906
2782.7778,99.4525
2783.7419,99.4219
2784.7063,99.3987
2785.6704,99.3795
2786.6348,99.3589
2787.5989,99.3315
2788.5632,99.2942
2789.5273,99.2469
2790.4917,99.193
2791.4558,99.1376
2792.4202,99.0855
2793.3843,99.0394
2794.3486,98.9985
2795.3127,98.9591
2796.2771,98.9165
2797.2412,98.8669
2798.2056,98.8092
2799.1697,98.745
2800.1340,98.6777
2801.0981,98.6104
2802.0625,98.5455
2803.0266,98.4834
2803.9910,98.4232
2804.9551,98.3628
2805.9194,98.2996
2806.8835,98.2314
2807.8479,98.1564
2808.8120,98.0745
2809.7764,97.9862
2810.7405,97.8924
2811.7048,97.7937
2812.6689,97.6897
2813.6333,97.579
2814.5974,97.4605
2815.5618,97.3334
2816.5259,97.1976
2817.4902,97.0529
2818.4543,96.8985
2819.4187,96.7325
2820.3828,96.5525
2821.3472,96.3568
2822.3113,96.1447
2823.2756,95.9172
2824.2397,95.6759
2825.2041,95.4222
2826.1682,95.1565
2827.1326,94.8776
2828.0967,94.584
2829.0610,94.2739
2830.0251,93.9473
2830.9895,93.606
2831.9536,93.2547
2832.9180,92.8992
2833.8821,92.5456
2834.8464,92.1987
2835.8105,91.8606
2836.7749,91.532
2837.7390,91.2131
2838.7034,90.9051
2839.6675,90.6099
2840.6318,90.3283
2841.5959,90.0572
2842.5603,89.7895
2843.5244,89.5163
2844.4888,89.2324
2845.4529,88.9418
2846.4172,88.6591
2847.3813,88.4056
2848.3457,88.2004
2849.3098,88.0511
2850.2742,87.9506
2851.2383,87.8792
2852.2026,87.8138
2853.1667,87.7368
2854.1311,87.6409
2855.0952,87.528
2856.0596,87.404
2857.0237,87.2728
2857.9880,87.1339
2858.9521,86.9828
2859.9165,86.8149
2860.8806,86.6286
2861.8450,86.4268
2862.8091,86.216
2863.7734,86.0039
2864.7375,85.7974
2865.7019,85.6001
2866.6660,85.4127
2867.6304,85.2336
2868.5945,85.0607
2869.5588,84.8933
2870.5229,84.7324
2871.4873,84.5799
2872.4514,84.4374
2873.4158,84.3043
2874.3799,84.178
2875.3442,84.0549
2876.3083,83.9314
2877.2727,83.8053
2878.2368,83.6768
2879.2012,83.5492
2880.1653,83.429
2881.1296,83.3254
2882.0938,83.248
2883.0581,83.2035
2884.0222,83.1929
2884.9866,83.2101
2885.9507,83.2437
2886.9150,83.2803
2887.8792,83.3085
2888.8435,83.3219
2889.8076,83.3215
2890.7720,83.3143
2891.7361,83.3088
2892.7004,83.3086
2893.6646,83.3057
2894.6289,83.2795
2895.5930,83.2044
2896.5574,83.0644
2897.5215,82.8655
2898.4858,82.6403
2899.4500,82.436
2900.4143,82.295
2901.3784,82.2348
2902.3428,82.2414
2903.3069,82.2779
2904.2712,82.3026
2905.2354,82.286
2906.1997,82.218
2907.1638,82.1045
2908.1282,81.9585
2909.0923,81.7923
2910.0566,81.6149
2911.0208,81.4322
2911.9851,81.2492
2912.9492,81.0704
2913.9136,80.9002
2914.8777,80.742
2915.8420,80.5981
2916.8062,80.4693
2917.7705,80.3543
2918.7346,80.2496
2919.6990,80.1502
2920.6631,80.0513
2921.6274,79.95
2922.5916,79.8454
2923.5559,79.7386
2924.5200,79.631
2925.4844,79.5241
2926.4485,79.4202
2927.4128,79.3228
2928.3770,79.2367
2929.3413,79.1664
2930.3054,79.115
2931.2698,79.0844
2932.2339,79.0756
2933.1982,79.091
2934.1624,79.1341
2935.1267,79.2089
2936.0908,79.3175
2937.0552,79.4582
2938.0193,79.6262
2938.9836,79.8148
2939.9478,80.0189
2940.9121,80.2366
2941.8762,80.4693
2942.8406,80.7189
2943.8047,80.9845
2944.7690,81.2597
2945.7332,81.5329
2946.6975,81.7911
2947.6616,82.0234
2948.6260,82.2251
2949.5901,82.3974
2950.5544,82.5458
2951.5186,82.6774
2952.4829,82.798
2953.4470,82.9124
2954.4114,83.0237
2955.3755,83.1349
2956.3398,83.2483
2957.3040,83.3653
2958.2683,83.4855
2959.2324,83.606
2960.1968,83.7219
2961.1609,83.8274
2962.1252,83.9178
2963.0894,83.992
2964.0537,84.0531
2965.0178,84.107
2965.9822,84.1607
2966.9463,84.22
2967.9106,84.2897
2968.8748,84.3744
2969.8391,84.4798
2970.8032,84.6126
2971.7676,84.7773
2972.7317,84.9741
2973.6960,85.1977
2974.6602,85.4397
2975.6245,85.6913
2976.5886,85.9469
2977.5530,86.2043
2978.5171,86.4631
2979.4814,86.7222
2980.4456,86.9767
2981.4099,87.2169
2982.3740,87.4293
2983.3384,87.6021
2984.3025,87.7338
2985.2668,87.8419
2986.2310,87.9644
2987.1953,88.1501
2988.1594,88.4384
2989.1238,88.8386
2990.0879,89.3211
2991.0522,89.8272
2992.0164,90.294
2992.9807,90.6804
2993.9448,90.9814
2994.9092,91.2225
2995.8733,91.4417
2996.8376,91.6694
2997.8018,91.9178
2998.7661,92.1839
2999.7302,92.4585
3000.6946,92.7348
3001.6587,93.0119
3002.6230,93.2929
3003.5872,93.5812
3004.5515,93.8775
3005.5156,94.1794
3006.4800,94.4822
3007.4441,94.7806
3008.4084,95.0703
3009.3726,95.35
3010.3369,95.6222
3011.3010,95.8916
3012.2654,96.1621
3013.2295,96.4336
3014.1938,96.7016
3015.1580,96.959
3016.1223,97.2
3017.0864,97.4223
3018.0508,97.6279
3019.0149,97.8204
3019.9792,98.0032
3020.9434,98.1783
3021.9077,98.347
3022.8718,98.5108
3023.8362,98.6707
3024.8003,98.8265
3025.7646,98.976
3026.7288,99.1159
3027.6931,99.2434
3028.6572,99.3586
3029.6216,99.4645
3030.5857,99.565
3031.5500,99.6632
3032.5142,99.7599
3033.4785,99.8546
3034.4426,99.9464
3035.4070,100.001
3036.3711,100.047
3037.3354,100.083
3038.2996,100.107
3039.2639,100.115
3040.2280,100.109
3041.1924,100.092
3042.1565,100.07
3043.1208,100.048
3044.0850,100.027
3045.0493,100.004
3046.0134,99.9783
3046.9778,99.9474
3047.9419,99.9107
3048.9063,99.8671
3049.8704,99.8142
3050.8347,99.7503
3051.7988,99.6761
3052.7632,99.5958
3053.7273,99.5166
3054.6917,99.4455
3055.6558,99.3866
3056.6201,99.3393
3057.5842,99.2984
3058.5486,99.2562
3059.5127,99.2053
3060.4771,99.141
3061.4412,99.0637
3062.4055,98.9789
3063.3696,98.8956
3064.3340,98.8223
3065.2981,98.7632
3066.2625,98.7156
3067.2266,98.6724
3068.1909,98.6264
3069.1550,98.5742
3070.1194,98.5173
3071.0835,98.4593
3072.0479,98.4022
3073.0120,98.3443
3073.9763,98.2811
3074.9404,98.209
3075.9048,98.1284
3076.8689,98.0441
3077.8333,97.9627
3078.7974,97.8892
3079.7617,97.8245
3080.7258,97.7654
3081.6902,97.7077
3082.6543,97.6484
3083.6187,97.587
3084.5828,97.5245
3085.5471,97.462
3086.5112,97.3994
3087.4756,97.3346
3088.4397,97.2653
3089.4041,97.1897
3090.3682,97.107
3091.3325,97.018
3092.2966,96.9244
3093.2610,96.8281
3094.2251,96.7311
3095.1895,96.6346
3096.1536,96.5392
3097.1179,96.4452
3098.0820,96.3526
3099.0464,96.2617
3100.0105,96.1731
3100.9749,96.0869
3101.9390,96.0026
3102.9033,95.9192
3103.8674,95.8358
3104.8318,95.7519
3105.7959,95.6679
3106.7603,95.5836
3107.7244,95.498
3108.6887,95.409
3109.6528,95.3139
3110.6172,95.2114
3111.5813,95.1026
3112.5457,94.9911
3113.5098,94.8818
3114.4741,94.7788
3115.4382,94.6839
3116.4026,94.5956
3117.3667,94.5104
3118.3311,94.4247
3119.2952,94.3364
3120.2595,94.2459
3121.2236,94.1554
3122.1880,94.067
3123.1521,93.9817
3124.1165,93.8986
3125.0806,93.8156
3126.0449,93.7301
3127.0090,93.6404
3127.9734,93.5455
3128.9375,93.4456
3129.9019,93.3418
3130.8660,93.2357
3131.8303,93.1296
3132.7944,93.0259
3133.7588,92.9267
3134.7229,92.8329
3135.6873,92.7443
3136.6514,92.6596
3137.6157,92.5762
3138.5798,92.4918
3139.5442,92.4041
3140.5083,92.3114
3141.4727,92.2132
3142.4368,92.1094
3143.4011,92.0004
3144.3652,91.8871
3145.3296,91.7714
3146.2937,91.6564
3147.2581,91.5462
3148.2222,91.4443
3149.1865,91.3515
3150.1506,91.2645
3151.1150,91.1767
3152.0791,91.0815
3153.0435,90.976
3154.0076,90.8626
3154.9719,90.7479
3155.9360,90.6384
3156.9004,90.537
3157.8645,90.4421
3158.8289,90.3488
3159.7930,90.2527
3160.7573,90.1517
3161.7214,90.0462
3162.6858,89.938
3163.6499,89.8286
3164.6143,89.7191
3165.5784,89.6109
3166.5427,89.5058
3167.5068,89.4061
3168.4712,89.3125
3169.4353,89.2624
3170.3997,89.1711
3171.3638,89.0725
3172.3281,88.9631
3173.2922,88.8432
3174.2566,88.7176
3175.2207,88.5927
3176.1851,88.4749
3177.1492,88.3673
3178.1135,88.2693
3179.0776,88.1774
3180.0420,88.0877
3181.0061,87.9977
3181.9705,87.907
3182.9346,87.816
3183.8989,87.725
3184.8630,87.6328
3185.8274,87.5375
3186.7915,87.4379
3187.7559,87.3346
3188.7200,87.2299
3189.6843,87.1264
3190.6484,87.0253
3191.6128,86.9252
3192.5769,86.8241
3193.5413,86.7207
3194.5054,86.6164
3195.4697,86.5145
3196.4338,86.4185
3197.3982,86.3289
3198.3623,86.2436
3199.3267,86.159
3200.2908,86.0728
3201.2551,85.9855
3202.2192,85.8989
3203.1836,85.8141
3204.1477,85.7297
3205.1121,85.642
3206.0762,85.5483
3207.0405,85.4485
3208.0046,85.346
3208.9690,85.2457
3209.9331,85.1511
3210.8975,85.0629
3211.8616,84.9794
3212.8259,84.8983
3213.7900,84.8184
3214.7544,84.7393
3215.7185,84.6606
3216.6829,84.5818
3217.6470,84.5024
3218.6113,84.4223
3219.5754,84.3428
3220.5398,84.2649
3221.5039,84.1885
3222.4683,84.1119
3223.4324,84.0328
3224.3967,83.9498
3225.3608,83.864
3226.3252,83.7785
3227.2893,83.6973
3228.2537,83.6235
3229.2178,83.5581
3230.1821,83.4995
3231.1462,83.4443
3232.1106,83.3886
3233.0747,83.3287
3234.0391,83.2628
3235.0032,83.1916
3235.9675,83.1175
3236.9316,83.0432
3237.8960,82.9696
3238.8601,82.8953
3239.8245,82.8175
3240.7886,82.7349
3241.7529,82.6497
3242.7170,82.568
3243.6814,82.4967
3244.6455,82.4404
3245.6099,82.3984
3246.5740,82.3643
3247.5383,82.33
3248.5024,82.2889
3249.4668,82.2381
3250.4309,82.1786
3251.3953,82.1127
3252.3594,82.0434
3253.3237,81.973
3254.2878,81.9036
3255.2522,81.8374
3256.2163,81.7768
3257.1807,81.7238
3258.1448,81.6784
3259.1091,81.6384
3260.0732,81.5996
3261.0376,81.5576
3262.0017,81.5093
3262.9661,81.4535
3263.9302,81.3909
3264.8945,81.323
3265.8586,81.2507
3266.8230,81.1749
3267.7871,81.0968
3268.7515,81.0192
3269.7156,80.9462
3270.6799,80.882
3271.6440,80.8293
3272.6084,80.7876
3273.5725,80.7543
3274.5369,80.7258
3275.5010,80.6993
3276.4653,80.6734
3277.4294,80.6476
3278.3938,80.6209
3279.3579,80.5913
3280.3223,80.5568
3281.2864,80.5162
3282.2507,80.4706
3283.2148,80.4221
3284.1792,80.3729
3285.1433,80.3236
3286.1077,80.2735
3287.0718,80.2216
3288.0361,80.1683
3289.0002,80.1156
3289.9646,80.0674
3290.9287,80.0271
3291.8931,79.9966
3292.8572,79.9751
3293.8215,79.959
3294.7856,79.9428
3295.7500,79.9203
3296.7141,79.8864
3297.6785,79.8386
3298.6426,79.7786
3299.6069,79.7122
3300.5710,79.6472
3301.5354,79.5908
3302.4995,79.5466
3303.4639,79.5135
3304.4280,79.4875
3305.3923,79.4644
3306.3564,79.4425
3307.3208,79.4228
3308.2849,79.4074
3309.2493,79.3975
3310.2134,79.3911
3311.1777,79.3838
3312.1418,79.3712
3313.1062,79.3508
3314.0703,79.3236
3315.0347,79.2933
3315.9988,79.2643
3316.9631,79.2394
3317.9272,79.2189
3318.8916,79.2006
3319.8557,79.1812
3320.8201,79.1586
3321.7842,79.1325
3322.7485,79.1046
3323.7126,79.0776
3324.6770,79.0536
3325.6411,79.0332
3326.6055,79.0158
3327.5696,79.0002
3328.5339,78.9853
3329.4980,78.9702
3330.4624,78.9536
3331.4265,78.9344
3332.3909,78.9123
3333.3550,78.8887
3334.3193,78.867
3335.2834,78.851
3336.2478,78.8428
3337.2119,78.8411
3338.1763,78.8419
3339.1404,78.8405
3340.1047,78.8341
3341.0688,78.8222
3342.0332,78.8064
3342.9973,78.7887
3343.9617,78.771
3344.9258,78.7554
3345.8901,78.7446
3346.8542,78.7412
3347.8186,78.7467
3348.7827,78.76
3349.7471,78.777
3350.7112,78.7919
3351.6755,78.8
3352.6396,78.7987
3353.6040,78.7887
3354.5681,78.7734
3355.5325,78.7586
3356.4966,78.75
3357.4609,78.7511
3358.4250,78.7613
3359.3894,78.7754
3360.3535,78.7852
3361.3179,78.7843
3362.2820,78.7716
3363.2463,78.7531
3364.2104,78.7387
3365.1748,78.7376
3366.1389,78.7526
3367.1033,78.7796
3368.0674,78.8105
3369.0317,78.8384
3369.9958,78.8609
3370.9602,78.8797
3371.9243,78.8975
3372.8887,78.9146
3373.8528,78.9291
3374.8171,78.9387
3375.7813,78.9446
3376.7456,78.9519
3377.7097,78.9672
3378.6741,78.9943
3379.6382,79.0312
3380.6025,79.07
3381.5667,79.1018
3382.5310,79.1209
3383.4951,79.1281
3384.4595,79.1289
3385.4236,79.1301
3386.3879,79.1367
3387.3521,79.1509
3388.3164,79.1732
3389.2805,79.2039
3390.2449,79.2417
3391.2090,79.283
3392.1733,79.3219
3393.1375,79.3531
3394.1018,79.3763
3395.0659,79.3977
3396.0303,79.4274
3396.9944,79.4731
3397.9587,79.5356
3398.9229,79.6074
3399.8872,79.6777
3400.8513,79.7382
3401.8157,79.7867
3402.7798,79.8262
3403.7441,79.8621
3404.7083,79.8988
3405.6726,79.9385
3406.6367,79.9817
3407.6011,80.0283
3408.5652,80.0776
3409.5295,80.1286
3410.4937,80.1805
3411.4580,80.2318
3412.4221,80.2809
3413.3865,80.3256
3414.3506,80.3633
3415.3149,80.3929
3416.2791,80.4158
3417.2434,80.4379
3418.2075,80.4683
3419.1719,80.5154
3420.1360,80.5828
3421.1003,80.6661
3422.0645,80.7555
3423.0288,80.841
3423.9929,80.9175
3424.9573,80.9858
3425.9214,81.0504
3426.8857,81.1161
3427.8499,81.1851
3428.8142,81.2569
3429.7783,81.3293
3430.7427,81.4008
3431.7068,81.4722
3432.6711,81.5458
3433.6353,81.6238
3434.5996,81.7053
3435.5637,81.7859
3436.5281,81.8592
3437.4922,81.9205
3438.4565,81.9697
3439.4207,82.0119
3440.3850,82.0547
3441.3491,82.1044
3442.3135,82.1642
3443.2776,82.2336
3444.2419,82.3111
3445.2061,82.3953
3446.1704,82.4857
3447.1345,82.5805
3448.0989,82.6757
3449.0630,82.7673
3450.0273,82.8537
3450.9915,82.9361
3451.9558,83.0174
3452.9199,83.1
3453.8843,83.184
3454.8484,83.2682
3455.8127,83.3506
3456.7769,83.4294
3457.7412,83.5033
3458.7053,83.5716
3459.6697,83.635
3460.6338,83.6957
3461.5981,83.7583
3462.5623,83.828
3463.5266,83.9092
3464.4907,84.0034
3465.4551,84.1083
3466.4192,84.2185
3467.3835,84.327
3468.3477,84.4271
3469.3120,84.5143
3470.2761,84.5886
3471.2405,84.6546
3472.2046,84.7209
3473.1689,84.7962
3474.1331,84.885
3475.0974,84.9845
3476.0615,85.0853
3477.0259,85.1771
3477.9900,85.2547
3478.9543,85.321
3479.9185,85.3857
3480.8828,85.4594
3481.8469,85.5472
3482.8113,85.646
3483.7754,85.748
3484.7397,85.8473
3485.7039,85.9429
3486.6682,86.0385
3487.6323,86.1382
3488.5967,86.2433
3489.5608,86.3505
3490.5251,86.4552
3491.4893,86.5547
3492.4536,86.6509
3493.4177,86.7486
3494.3821,86.8518
3495.3462,86.959
3496.3105,87.062
3497.2747,87.1504
3498.2390,87.2186
3499.2031,87.2719
3500.1675,87.326
3501.1316,87.4015
3502.0959,87.5142
3503.0601,87.6625
3504.0244,87.8268
3504.9885,87.9835
3505.9529,88.1193
3506.9170,88.2355
3507.8813,88.3409
3508.8455,88.4445
3509.8098,88.5506
3510.7739,88.6583
3511.7383,88.7657
3512.7024,88.8751
3513.6667,88.9916
3514.6309,89.1189
3515.5952,89.2538
3516.5593,89.3865
3517.5237,89.5051
3518.4878,89.6028
3519.4521,89.6815
3520.4163,89.7513
3521.3806,89.8245
3522.3447,89.91
3523.3091,90.0098
3524.2732,90.1202
3525.2375,90.2379
3526.2017,90.3645
3527.1660,90.5049
3528.1301,90.661
3529.0945,90.8263
3530.0586,90.9878
3531.0229,91.1351
3531.9871,91.2667
3532.9514,91.3904
3533.9155,91.5174
3534.8799,91.6563
3535.8440,91.8072
3536.8083,91.9604
3537.7725,92.1004
3538.7368,92.2151
3539.7009,92.3017
3540.6653,92.3671
3541.6294,92.4252
3542.5938,92.4945
3543.5579,92.5952
3544.5222,92.741
3545.4863,92.9256
3546.4507,93.1213
3547.4148,93.2977
3548.3792,93.4437
3549.3433,93.5709
3550.3076,93.7013
3551.2717,93.8529
3552.2361,94.0295
3553.2002,94.2185
3554.1646,94.3997
3555.1287,94.5592
3556.0930,94.6952
3557.0571,94.8119
3558.0215,94.9114
3558.9856,94.991
3559.9500,95.0476
3560.9141,95.0827
3561.8784,95.105
3562.8425,95.1274
3563.8069,95.1659
3564.7710,95.2468
3565.7354,95.411
3566.6995,95.6777
3567.6638,95.9917
3568.6279,96.2575
3569.5923,96.4296
3570.5564,96.53
3571.5208,96.6014
3572.4849,96.6716
3573.4492,96.7487
3574.4133,96.8308
3575.3777,96.9158
3576.3418,97.005
3577.3062,97.0997
3578.2703,97.1972
3579.2346,97.2898
3580.1987,97.369
3581.1631,97.4321
3582.1272,97.4849
3583.0916,97.5364
3584.0557,97.5924
3585.0200,97.6574
3585.9841,97.7444
3586.9485,97.864
3587.9126,97.9915
3588.8770,98.0761
3589.8411,98.0971
3590.8054,98.0807
3591.7695,98.0658
3592.7339,98.076
3593.6980,98.1136
3594.6624,98.1641
3595.6265,98.2059
3596.5908,98.2271
3597.5549,98.2374
3598.5193,98.263
3599.4834,98.328
3600.4478,98.4355
3601.4119,98.5655
3602.3762,98.6923
3603.3403,98.8048
3604.3047,98.907
3605.2688,99.0078
3606.2332,99.1129
3607.1973,99.2212
3608.1616,99.3214
3609.1257,99.3926
3610.0901,99.4197
3611.0542,99.4062
3612.0186,99.3724
3612.9829,99.3423
3613.9470,99.3314
3614.9114,99.3279
3615.8755,99.3369
3616.8398,99.3603
3617.8040,99.4014
3618.7683,99.4632
3619.7324,99.5256
3620.6968,99.5469
3621.6609,99.5087
3622.6252,99.441
3623.5894,99.3968
3624.5537,99.4097
3625.5178,99.4723
3626.4822,99.5489
3627.4463,99.6187
3628.4106,99.6921
3629.3748,99.7495
3630.3391,99.736
3631.3032,99.6512
3632.2676,99.5547
3633.2317,99.5006
3634.1960,99.5014
3635.1602,99.5346
3636.1245,99.5669
3637.0886,99.5763
3638.0530,99.5591
3639.0171,99.5217
3639.9814,99.4713
3640.9456,99.4124
3641.9099,99.3516
3642.8740,99.3004
3643.8384,99.2673
3644.8025,99.2413
3645.7668,99.1809
3646.7310,99.0465
3647.6953,98.8972
3648.6594,98.9045
3649.6238,99.0852
3650.5879,99.231
3651.5522,99.2314
3652.5164,99.1444
3653.4807,99.054
3654.4448,98.9952
3655.4092,98.9591
3656.3733,98.9212
3657.3376,98.8644
3658.3018,98.7915
3659.2661,98.7241
3660.2302,98.6839
3661.1946,98.674
3662.1587,98.6783
3663.1230,98.679
3664.0872,98.6733
3665.0515,98.6709
3666.0156,98.6749
3666.9800,98.6696
3667.9441,98.6362
3668.9084,98.5838
3669.8726,98.5415
3670.8369,98.5155
3671.8010,98.4889
3672.7654,98.4459
3673.7295,98.3854
3674.6938,98.3419
3675.6580,98.3715
3676.6223,98.4679
3677.5864,98.5587
3678.5508,98.6017
3679.5149,98.6062
3680.4792,98.589
3681.4434,98.5546
3682.4077,98.5088
3683.3718,98.469
3684.3362,98.4556
3685.3003,98.4669
3686.2646,98.4656
3687.2288,98.403
3688.1931,98.2852
3689.1572,98.1974
3690.1216,98.2023
3691.0857,98.2689
3692.0500,98.3438
3693.0142,98.4087
3693.9785,98.4661
3694.9426,98.5197
3695.9070,98.5712
3696.8711,98.6239
3697.8354,98.6816
3698.7996,98.7461
3699.7639,98.8165
3700.7280,98.8906
3701.6924,98.9615
3702.6565,99.0143
3703.6208,99.0364
3704.5850,99.0314
3705.5493,99.0154
3706.5134,98.9981
3707.4778,98.9743
3708.4419,98.9397
3709.4063,98.9299
3710.3704,99.0223
3711.3347,99.2356
3712.2988,99.4618
3713.2632,99.5893
3714.2273,99.6223
3715.1917,99.5848
3716.1558,99.5285
3717.1201,99.4746
3718.0842,99.4186
3719.0486,99.3492
3720.0127,99.266
3720.9771,99.1847
3721.9412,99.1285
3722.9055,99.1163
3723.8696,99.1516
3724.8340,99.2179
3725.7981,99.2866
3726.7625,99.3358
3727.7266,99.3654
3728.6909,99.3901
3729.6550,99.4197
3730.6194,99.445
3731.5835,99.4435
3732.5479,99.4081
3733.5120,99.383
3734.4763,99.4406
3735.4404,99.5751
3736.4048,99.6777
3737.3689,99.6786
3738.3333,99.628
3739.2974,99.632
3740.2617,99.7659
3741.2258,100.028
3742.1902,100.33
3743.1543,100.533
3744.1187,100.534
3745.0828,100.335
3746.0471,100.033
3747.0112,99.744
3747.9756,99.5448
3748.9397,99.4695
3749.9041,99.5388
3750.8682,99.7258
3751.8325,99.8974
3752.7966,99.9274
3753.7610,99.8266
3754.7251,99.6849
3755.6895,99.5734
3756.6536,99.5189
3757.6179,99.522
3758.5820,99.5706
3759.5464,99.6376
3760.5105,99.6918
3761.4749,99.7192
3762.4390,99.7266
3763.4033,99.7252
3764.3674,99.7205
3765.3318,99.7125
3766.2959,99.7024
3767.2603,99.6972
3768.2244,99.7089
3769.1887,99.7458
3770.1528,99.8002
3771.1172,99.8473
3772.0813,99.8639
3773.0457,99.8475
3774.0098,99.8142
3774.9741,99.7816
3775.9382,99.757
3776.9026,99.7405
3777.8667,99.733
3778.8311,99.7331
3779.7952,99.7284
3780.7595,99.7028
3781.7236,99.6543
3782.6880,99.5985
3783.6521,99.5592
3784.6165,99.555
3785.5806,99.5899
3786.5449,99.651
3787.5090,99.7169
3788.4734,99.771
3789.4375,99.8082
3790.4019,99.8316
3791.3660,99.843
3792.3303,99.8359
3793.2944,99.7986
3794.2588,99.7274
3795.2229,99.6375
3796.1873,99.5592
3797.1514,99.5175
3798.1157,99.5137
3799.0798,99.5262
3800.0442,99.5327
3801.0083,99.529
3801.9727,99.523
3802.9368,99.5246
3803.9011,99.5488
3804.8652,99.6094
3805.8296,99.6998
3806.7937,99.7865
3807.7581,99.8245
3808.7222,99.7942
3809.6865,99.7266
3810.6506,99.6817
3811.6150,99.6984
3812.5791,99.7617
3813.5435,99.8122
3814.5076,99.7916
3815.4719,99.6909
3816.4360,99.552
3817.4004,99.4302
3818.3645,99.3634
3819.3289,99.3667
3820.2930,99.4284
3821.2573,99.5019
3822.2214,99.526
3823.1858,99.4798
3824.1499,99.3992
3825.1143,99.3384
3826.0784,99.3308
3827.0427,99.3765
3828.0068,99.4518
3828.9712,99.5261
3829.9353,99.5791
3830.8997,99.6067
3831.8638,99.6177
3832.8281,99.6219
3833.7922,99.6196
3834.7566,99.5969
3835.7207,99.5368
3836.6851,99.441
3837.6492,99.3445
3838.6135,99.2929
3839.5776,99.3038
3840.5420,99.3626
3841.5061,99.4469
3842.4705,99.5353
3843.4346,99.6017
3844.3989,99.6192
3845.3630,99.5783
3846.3274,99.5032
3847.2915,99.4466
3848.2559,99.463
3849.2200,99.5769
3850.1843,99.7607
3851.1484,99.9459
3852.1128,100.093
3853.0769,100.221
3854.0413,100.275
3855.0054,100.153
3855.9697,99.8993
3856.9338,99.6478
3857.8982,99.4935
3858.8623,99.451
3859.8267,99.4748
3860.7908,99.4989
3861.7551,99.4832
3862.7192,99.442
3863.6836,99.4234
3864.6477,99.4572
3865.6121,99.534
3866.5762,99.6224
3867.5405,99.6876
3868.5046,99.705
3869.4690,99.6755
3870.4331,99.6271
3871.3975,99.5924
3872.3616,99.5826
3873.3259,99.5897
3874.2900,99.6046
3875.2544,99.6256
3876.2185,99.6514
3877.1829,99.6723
3878.1470,99.6728
3879.1113,99.645
3880.0754,99.6024
3881.0398,99.5744
3882.0039,99.586
3882.9683,99.6415
3883.9324,99.7226
3884.8967,99.7956
3885.8608,99.8285
3886.8252,99.8101
3887.7893,99.7547
3888.7537,99.6871
3889.7178,99.6252
3890.6821,99.5795
3891.6462,99.5543
3892.6106,99.5433
3893.5747,99.5366
3894.5391,99.5387
3895.5032,99.5621
3896.4675,99.6054
3897.4316,99.6466
3898.3960,99.6606
3899.3601,99.6398
3900.3245,99.597
3901.2886,99.5529
3902.2529,99.5268
3903.2170,99.5313
3904.1814,99.562
3905.1455,99.5992
3906.1099,99.6264
3907.0740,99.6428
3908.0383,99.6555
3909.0024,99.6667
3909.9668,99.6716
3910.9309,99.6651
3911.8953,99.6483
3912.8594,99.6285
3913.8237,99.6145
3914.7878,99.6114
3915.7522,99.62
3916.7163,99.6365
3917.6807,99.6499
3918.6448,99.6443
3919.6091,99.6102
3920.5732,99.5542
3921.5376,99.4933
3922.5017,99.4452
3923.4661,99.4204
3924.4302,99.417
3925.3945,99.4216
3926.3586,99.42
3927.3230,99.4077
3928.2871,99.3913
3929.2515,99.3825
3930.2156,99.3943
3931.1799,99.4337
3932.1440,99.4938
3933.1084,99.5536
3934.0725,99.5931
3935.0369,99.6066
3936.0010,99.6003
3936.9653,99.5832
3937.9294,99.5597
3938.8938,99.5302
3939.8579,99.4956
3940.8223,99.4631
3941.7864,99.4448
3942.7507,99.4493
3943.7148,99.4735
3944.6792,99.5038
3945.6433,99.524
3946.6077,99.5224
3947.5718,99.4969
3948.5361,99.4574
3949.5002,99.4209
3950.4646,99.4017
3951.4287,99.4038
3952.3931,99.4221
3953.3572,99.4465
3954.3215,99.4658
3955.2856,99.4725
3956.2500,99.4649
3957.2141,99.4482
3958.1785,99.431
3959.1426,99.4218
3960.1069,99.4257
3961.0710,99.4426
3962.0354,99.467
3962.9995,99.4909
3963.9639,99.5069
3964.9280,99.5114
3965.8923,99.5048
3966.8564,99.49
3967.8208,99.4701
3968.7849,99.4481
3969.7493,99.4267
3970.7134,99.4094
3971.6777,99.4005
3972.6418,99.4031
3973.6062,99.4169
3974.5703,99.4363
3975.5347,99.4532
3976.4988,99.4608
3977.4631,99.4573
3978.4272,99.4467
3979.3916,99.4347
3980.3557,99.4246
3981.3201,99.4158
3982.2842,99.4049
3983.2485,99.3901
3984.2126,99.3736
3985.1770,99.3609
3986.1411,99.3567
3987.1055,99.3609
3988.0696,99.3677
3989.0339,99.3684
3989.9980,99.3576
3990.9624,99.3368
3991.9265,99.3143
3992.8909,99.2998
3993.8550,99.2987
3994.8193,99.3091
3995.7834,99.3238
3996.7478,99.3372
3997.7119,99.3457
3998.6763,99.351
3999.6404,99.3574
4000.6047,99.2056

##### Extended Information
[Comments]
Sample name
Comment
User
Division
Company,HANKYONG

[Detailed Information]
Creation date,4/24/2024 11:13 AM

Data array type,Linear data array
Horizontal axis,Wavenumber [cm-1]
Vertical axis,%T
Start,649.893 cm-1
End,4000.6 cm-1
Data interval,0.964233 cm-1
Data points,3476    

[Measurement Information]
Model Name,FT/IR-4700typeA
Serial Number,D056761788

Accessory,ATR PRO ONE
Accessory S/N,C174761809
Incident angle,45 deg

Measurement Date,4/24/2024 11:12 AM

Light Source,Standard
Detector,TGS
Accumulation,32
Resolution,4 cm-1
Zero Filling,On
Apodization,Cosine
Gain,Auto (4)
Aperture,Auto (7.1 mm)
Scanning Speed,Auto (2 mm/sec)
Filter,Auto (30000 Hz)

