TITLE,
DATA TYPE,INFRARED SPECTRUM
ORIGIN,JASCO
OWNER,
DATE,24/04/24
TIME,10:38:02
SPECTROMETER/DATA SYSTEM,
LOCALE,1033
RESOLUTION,
DELTAX,0.964233
XUNITS,1/CM
YUNITS,TRANSMITTANCE
FIRSTX,  649.8934
LASTX, 4000.6047
NPOINTS,    3476
FIRSTY,   101.06174
MAXY,   101.08543
MINY,    45.16426
XYDATA
649.8934,101.062
650.8576,100.809
651.8218,100.582
652.7861,100.404
653.7503,100.276
654.7145,100.186
655.6788,100.114
656.6430,100.034
657.6072,99.9279
658.5715,99.7943
659.5357,99.6481
660.4999,99.5063
661.4642,99.3672
662.4284,99.2019
663.3926,98.965
664.3569,98.6093
665.3211,98.0984
666.2853,97.4377
667.2496,96.7516
668.2138,96.328
669.1780,96.3717
670.1423,96.7132
671.1065,97.0525
672.0707,97.2512
673.0350,97.3088
673.9992,97.2772
674.9634,97.2224
675.9277,97.2085
676.8919,97.28
677.8561,97.4478
678.8204,97.6908
679.7846,97.9711
680.7488,98.2491
681.7131,98.4988
682.6773,98.7179
683.6415,98.9272
684.6058,99.155
685.5700,99.4134
686.5342,99.6814
687.4985,99.9101
688.4627,100.046
689.4269,100.058
690.3912,99.9537
691.3554,99.7838
692.3196,99.6469
693.2839,99.6607
694.2481,99.8739
695.2123,100.211
696.1766,100.546
697.1408,100.797
698.1050,100.94
699.0693,100.989
700.0335,100.972
700.9977,100.922
701.9620,100.863
702.9262,100.811
703.8904,100.775
704.8547,100.761
705.8189,100.77
706.7831,100.797
707.7474,100.83
708.7116,100.857
709.6758,100.866
710.6401,100.853
711.6043,100.814
712.5685,100.743
713.5328,100.633
714.4970,100.473
715.4612,100.503
716.4255,100.242
717.3897,99.9846
718.3539,99.7702
719.3182,99.6466
720.2824,99.6379
721.2466,99.73
722.2109,99.8771
723.1751,100.027
724.1393,100.143
725.1036,100.215
726.0678,100.251
727.0320,100.267
727.9963,100.278
728.9605,100.295
729.9247,100.327
730.8890,100.377
731.8532,100.445
732.8174,100.523
733.7817,100.593
734.7459,100.628
735.7101,100.607
736.6744,100.518
737.6386,100.367
738.6028,100.171
739.5671,99.9532
740.5313,99.7348
741.4955,99.5289
742.4598,99.3407
743.4240,99.172
744.3882,99.024
745.3525,98.9001
746.3167,98.8031
747.2809,98.733
748.2452,98.6852
749.2094,98.651
750.1736,98.6205
751.1379,98.5863
752.1021,98.5458
753.0663,98.5026
754.0306,98.4645
754.9948,98.439
755.9590,98.4285
756.9233,98.4259
757.8875,98.4144
758.8517,98.3739
759.8160,98.2901
760.7802,98.1629
761.7444,98.0087
762.7087,97.8542
763.6729,97.7257
764.6371,97.6392
765.6014,97.5975
766.5656,97.5942
767.5298,97.6204
768.4941,97.669
769.4583,97.7343
770.4225,97.8083
771.3868,97.8776
772.3510,97.9248
773.3152,97.9339
774.2795,97.8954
775.2437,97.81
776.2079,97.6876
777.1722,97.5437
778.1364,97.3951
779.1006,97.2564
780.0649,97.1368
781.0291,97.0397
781.9933,96.9618
782.9576,96.8954
783.9218,96.8306
784.8860,96.7588
785.8503,96.6743
786.8145,96.5748
787.7787,96.4605
788.7430,96.3343
789.7072,96.2017
790.6714,96.0716
791.6357,95.9553
792.5999,95.862
793.5641,95.7941
794.5284,95.7438
795.4926,95.6955
796.4568,95.6313
797.4211,95.5396
798.3853,95.4196
799.3495,95.2803
800.3138,95.1335
801.2780,94.9872
802.2422,94.8418
803.2065,94.6908
804.1707,94.5249
805.1349,94.3363
806.0992,94.1201
807.0634,93.8745
808.0276,93.6001
808.9919,93.2998
809.9561,92.9796
810.9203,92.6475
811.8846,92.3131
812.8488,91.9858
813.8130,91.6743
814.7773,91.3864
815.7415,91.1294
816.7057,90.9084
817.6700,90.7254
818.6342,90.579
819.5984,90.466
820.5627,90.3838
821.5269,90.3318
822.4911,90.3102
823.4554,90.3168
824.4196,90.3451
825.3839,90.3845
826.3481,90.4237
827.3123,90.4532
828.2766,90.4657
829.2408,90.454
830.2050,90.4087
831.1693,90.3191
832.1335,90.1758
833.0977,89.9756
834.0620,89.7224
835.0262,89.4259
835.9904,89.0971
836.9547,88.7449
837.9189,88.3759
838.8831,87.9957
839.8474,87.6107
840.8116,87.2283
841.7758,86.8551
842.7401,86.496
843.7043,86.1541
844.6685,85.8319
845.6328,85.5332
846.5970,85.2624
847.5612,85.0233
848.5255,84.8176
849.4897,84.644
850.4539,84.4996
851.4182,84.3812
852.3824,84.2855
853.3466,84.2087
854.3109,84.1448
855.2751,84.0863
856.2393,84.0259
857.2036,83.9595
858.1678,83.8894
859.1320,83.8235
860.0963,83.7733
861.0605,83.7492
862.0247,83.757
862.9890,83.797
863.9532,83.8659
864.9174,83.9598
865.8817,84.0767
866.8459,84.2171
867.8101,84.3838
868.7744,84.5811
869.7386,84.8123
870.7028,85.0756
871.6671,85.3597
872.6313,85.6397
873.5955,85.8799
874.5598,86.0442
875.5240,86.1115
876.4882,86.0864
877.4525,85.9996
878.4167,85.8941
879.3809,85.8062
880.3452,85.751
881.3094,85.7225
882.2736,85.7044
883.2379,85.6832
884.2021,85.6546
885.1663,85.6183
886.1306,85.5704
887.0948,85.5011
888.0590,85.4024
889.0233,85.2791
889.9875,85.1548
890.9517,85.0639
891.9160,85.0358
892.8802,85.0789
893.8444,85.1765
894.8087,85.2958
895.7729,85.4047
896.7371,85.484
897.7014,85.5317
898.6656,85.5569
899.6298,85.5711
900.5941,85.5813
901.5583,85.5887
902.5225,85.5905
903.4868,85.5837
904.4510,85.5672
905.4152,85.5423
906.3795,85.5126
907.3437,85.4817
908.3079,85.4525
909.2722,85.4266
910.2364,85.4049
911.2006,85.3897
912.1649,85.3859
913.1291,85.401
914.0933,85.4435
915.0576,85.5207
916.0218,85.6364
916.9860,85.7909
917.9503,85.9815
918.9145,86.2038
919.8787,86.4533
920.8430,86.7253
921.8072,87.0166
922.7714,87.3252
923.7357,87.6521
924.6999,88.0007
925.6641,88.3761
926.6284,88.7831
927.5926,89.2247
928.5568,89.702
929.5211,90.2161
930.4853,90.7699
931.4495,91.3696
932.4138,92.0225
933.3780,92.7334
934.3422,93.4985
935.3065,94.3026
936.2707,95.1189
937.2349,95.9139
938.1992,96.6546
939.1634,97.3145
940.1276,97.8779
941.0919,98.3397
942.0561,98.7024
943.0203,98.9726
943.9846,99.158
944.9488,99.3
945.9130,99.4582
946.8773,99.5576
947.8415,99.6077
948.8057,99.6175
949.7700,99.5934
950.7342,99.5391
951.6984,99.4552
952.6627,99.341
953.6269,99.195
954.5911,99.0166
955.5554,98.8055
956.5196,98.5609
957.4838,98.2808
958.4481,97.9616
959.4123,97.5993
960.3765,97.1912
961.3408,96.7383
962.3050,96.2467
963.2692,95.727
964.2335,95.1926
965.1977,94.6565
966.1619,94.1291
967.1262,93.6172
968.0904,93.125
969.0546,92.6557
970.0189,92.2131
970.9831,91.802
971.9473,91.4273
972.9116,91.0924
973.8758,90.7969
974.8400,90.5357
975.8043,90.298
976.7685,90.0686
977.7327,89.8305
978.6970,89.5677
979.6612,89.2682
980.6254,88.9245
981.5897,88.5333
982.5539,88.093
983.5181,87.6033
984.4824,87.0658
985.4466,86.4864
986.4108,85.8782
987.3751,85.2612
988.3393,84.6601
989.3035,84.0991
990.2678,83.5971
991.2320,83.1641
992.1962,82.8005
993.1605,82.4995
994.1247,82.2507
995.0889,82.0436
996.0532,81.8695
997.0174,81.7206
997.9816,81.5869
998.9459,81.4542
999.9101,81.304
1000.8743,81.1164
1001.8386,80.8743
1002.8028,80.565
1003.7670,80.1789
1004.7313,79.7065
1005.6955,79.1361
1006.6597,78.4545
1007.6240,77.6505
1008.5882,76.7182
1009.5524,75.6591
1010.5167,74.482
1011.4809,73.2021
1012.4451,71.8386
1013.4094,70.412
1014.3736,68.9399
1015.3378,67.4355
1016.3021,65.909
1017.2663,64.3722
1018.2305,62.8423
1019.1948,61.3379
1020.1590,59.868
1021.1232,58.4208
1022.0875,56.9659
1023.0517,55.4731
1024.0160,53.9424
1024.9802,52.4236
1025.9445,51.0089
1026.9087,49.797
1027.8729,48.8474
1028.8372,48.1512
1029.8014,47.6377
1030.7656,47.2104
1031.7299,46.7933
1032.6941,46.3594
1033.6583,45.9316
1034.6226,45.5606
1035.5868,45.2955
1036.5510,45.1643
1037.5153,45.1661
1038.4795,45.277
1039.4437,45.4601
1040.4080,45.6783
1041.3722,45.9046
1042.3364,46.1287
1043.3007,46.3571
1044.2649,46.6069
1045.2291,46.896
1046.1934,47.2367
1047.1576,47.6351
1048.1218,48.0948
1049.0861,48.6207
1050.0503,49.2165
1051.0145,49.8785
1051.9788,50.5905
1052.9430,51.329
1053.9072,52.0778
1054.8715,52.8454
1055.8357,53.6704
1056.7999,54.6032
1057.7642,55.6695
1058.7284,56.8324
1059.6926,57.9804
1060.6569,58.9591
1061.6211,59.639
1062.5853,59.9865
1063.5496,60.0959
1064.5138,60.158
1065.4780,60.3736
1066.4423,60.8566
1067.4065,61.5806
1068.3707,62.3967
1069.3350,63.1115
1070.2992,63.579
1071.2634,63.7557
1072.2277,63.6969
1073.1919,63.5081
1074.1561,63.2876
1075.1204,63.0916
1076.0846,62.9347
1077.0488,62.81
1078.0131,62.7107
1078.9773,62.6388
1079.9415,62.6016
1080.9058,62.6028
1081.8700,62.6381
1082.8342,62.6948
1083.7985,62.7578
1084.7627,62.816
1085.7269,62.8691
1086.6912,62.9309
1087.6554,63.0242
1088.6196,63.1698
1089.5839,63.3714
1090.5481,63.6071
1091.5123,63.8336
1092.4766,64.0014
1093.4408,64.0757
1094.4050,64.0478
1095.3693,63.9349
1096.3335,63.7679
1097.2977,63.5768
1098.2620,63.3814
1099.2262,63.1906
1100.1904,63.0066
1101.1547,62.8309
1102.1189,62.6671
1103.0831,62.5224
1104.0474,62.4071
1105.0116,62.3344
1105.9758,62.319
1106.9401,62.3762
1107.9043,62.5198
1108.8685,62.7615
1109.8328,63.111
1110.7970,63.577
1111.7612,64.1676
1112.7255,64.8894
1113.6897,65.7462
1114.6539,66.7384
1115.6182,67.8626
1116.5824,69.1134
1117.5466,70.4843
1118.5109,71.967
1119.4751,73.551
1120.4393,75.2217
1121.4036,76.9611
1122.3678,78.7487
1123.3320,80.5641
1124.2963,82.3876
1125.2605,84.2009
1126.2247,85.9849
1127.1890,87.7192
1128.1532,89.382
1129.1174,90.9515
1130.0817,92.4084
1131.0459,93.7376
1132.0101,94.9291
1132.9744,95.9777
1133.9386,96.8815
1134.9028,97.6419
1135.8671,98.2617
1136.8313,98.7457
1137.7955,99.0994
1138.7598,99.3289
1139.7240,99.44
1140.6882,99.439
1141.6525,99.3328
1142.6167,99.1305
1143.5809,98.8446
1144.5452,98.4911
1145.5094,98.0896
1146.4736,97.6459
1147.4379,97.1264
1148.4021,96.6279
1149.3663,96.1706
1150.3306,95.7708
1151.2948,95.439
1152.2590,95.1786
1153.2233,94.985
1154.1875,94.8469
1155.1517,94.7485
1156.1160,94.6719
1157.0802,94.6001
1158.0444,94.5177
1159.0087,94.4113
1159.9729,94.2688
1160.9371,94.0795
1161.9014,93.8356
1162.8656,93.5337
1163.8298,93.1765
1164.7941,92.7726
1165.7583,92.3336
1166.7225,91.8714
1167.6868,91.3943
1168.6510,90.9054
1169.6152,90.4044
1170.5795,89.8889
1171.5437,89.3573
1172.5079,88.809
1173.4722,88.2441
1174.4364,87.6622
1175.4006,87.0621
1176.3649,86.4433
1177.3291,85.8063
1178.2933,85.1536
1179.2576,84.4889
1180.2218,83.8157
1181.1860,83.1373
1182.1503,82.4574
1183.1145,81.781
1184.0787,81.1148
1185.0430,80.4649
1186.0072,79.8348
1186.9714,79.223
1187.9357,78.6247
1188.8999,78.0341
1189.8641,77.4481
1190.8284,76.8676
1191.7926,76.2964
1192.7568,75.7387
1193.7211,75.1968
1194.6853,74.6709
1195.6495,74.16
1196.6138,73.6626
1197.5780,73.1779
1198.5422,72.7052
1199.5065,72.259
1200.4707,71.8073
1201.4349,71.3674
1202.3992,70.9416
1203.3634,70.5344
1204.3276,70.1513
1205.2919,69.7977
1206.2561,69.4781
1207.2203,69.1943
1208.1846,68.947
1209.1488,68.7361
1210.1130,68.5622
1211.0773,68.4268
1212.0415,68.3307
1213.0057,68.2737
1213.9700,68.2534
1214.9342,68.2673
1215.8984,68.3138
1216.8627,68.393
1217.8269,68.5056
1218.7911,68.65
1219.7554,68.8217
1220.7196,69.0139
1221.6838,69.219
1222.6481,69.4304
1223.6123,69.6418
1224.5765,69.8474
1225.5408,70.0415
1226.5050,70.2201
1227.4692,70.3812
1228.4335,70.5255
1229.3977,70.6556
1230.3619,70.7765
1231.3262,70.8979
1232.2904,71.0348
1233.2546,71.203
1234.2189,71.409
1235.1831,71.6397
1236.1473,71.8614
1237.1116,72.0351
1238.0758,72.141
1239.0400,72.1987
1240.0043,72.264
1240.9685,72.4022
1241.9327,72.6489
1242.8970,72.9851
1243.8612,73.343
1244.8254,73.6408
1245.7897,73.8255
1246.7539,73.897
1247.7181,73.9004
1248.6824,73.895
1249.6466,73.9217
1250.6108,73.9875
1251.5751,74.0705
1252.5393,74.1391
1253.5035,74.1698
1254.4678,74.1554
1255.4320,74.1023
1256.3962,74.0233
1257.3605,73.9316
1258.3247,73.8381
1259.2889,73.7508
1260.2532,73.6754
1261.2174,73.6153
1262.1816,73.5719
1263.1459,73.546
1264.1101,73.5387
1265.0743,73.5516
1266.0386,73.5865
1267.0028,73.6447
1267.9670,73.7271
1268.9313,73.834
1269.8955,73.9665
1270.8597,74.1255
1271.8240,74.3122
1272.7882,74.5271
1273.7524,74.7697
1274.7167,75.0387
1275.6809,75.3317
1276.6451,75.6458
1277.6094,75.977
1278.5736,76.3207
1279.5378,76.672
1280.5021,77.0256
1281.4663,77.3764
1282.4305,77.7202
1283.3948,78.0547
1284.3590,78.3795
1285.3232,78.6961
1286.2875,79.0063
1287.2517,79.3109
1288.2159,79.6082
1289.1802,79.8951
1290.1444,80.1683
1291.1086,80.4267
1292.0729,80.6726
1293.0371,80.9112
1294.0013,81.1481
1294.9656,81.3869
1295.9298,81.6273
1296.8940,81.8648
1297.8583,82.0923
1298.8225,82.3027
1299.7867,82.4907
1300.7510,82.6531
1301.7152,82.7888
1302.6794,82.8981
1303.6437,82.9827
1304.6079,83.0447
1305.5721,83.0862
1306.5364,83.1085
1307.5006,83.1117
1308.4648,83.0956
1309.4291,83.0608
1310.3933,83.0097
1311.3575,82.9463
1312.3218,82.875
1313.2860,82.7988
1314.2502,82.7187
1315.2145,82.6349
1316.1787,82.5487
1317.1429,82.4639
1318.1072,82.3849
1319.0714,82.3139
1320.0356,82.249
1320.9999,82.1843
1321.9641,82.115
1322.9283,82.0408
1323.8926,81.9675
1324.8568,81.9042
1325.8210,81.8604
1326.7853,81.8424
1327.7495,81.8532
1328.7137,81.8943
1329.6780,81.9672
1330.6422,82.0729
1331.6064,82.2086
1332.5707,82.3648
1333.5349,82.5273
1334.4991,82.6831
1335.4634,82.828
1336.4276,82.9715
1337.3918,83.135
1338.3561,83.3405
1339.3203,83.5905
1340.2845,83.858
1341.2488,84.1018
1342.2130,84.2924
1343.1772,84.4228
1344.1415,84.5017
1345.1057,84.5425
1346.0699,84.5579
1347.0342,84.5574
1347.9984,84.5455
1348.9626,84.5224
1349.9269,84.4845
1350.8911,84.4282
1351.8553,84.3532
1352.8196,84.264
1353.7838,84.1685
1354.7480,84.0734
1355.7123,83.98
1356.6765,83.8837
1357.6407,83.7787
1358.6050,83.6625
1359.5692,83.5403
1360.5334,83.4267
1361.4977,83.341
1362.4619,83.2939
1363.4261,83.2746
1364.3904,83.258
1365.3546,83.225
1366.3188,83.1711
1367.2831,83.101
1368.2473,83.0199
1369.2115,82.9301
1370.1758,82.8298
1371.1400,82.7176
1372.1042,82.5971
1373.0685,82.4798
1374.0327,82.3812
1374.9969,82.31
1375.9612,82.26
1376.9254,82.2196
1377.8896,82.185
1378.8539,82.164
1379.8181,82.1685
1380.7823,82.2037
1381.7466,82.2652
1382.7108,82.3479
1383.6750,82.4586
1384.6393,82.6192
1385.6035,82.8493
1386.5677,83.1269
1387.5320,83.3607
1388.4962,83.4287
1389.4604,83.2626
1390.4247,82.8838
1391.3889,82.3802
1392.3531,81.8797
1393.3174,81.5312
1394.2816,81.4608
1395.2458,81.6892
1396.2101,82.0831
1397.1743,82.425
1398.1385,82.5541
1399.1028,82.4402
1400.0670,82.1511
1401.0313,81.7763
1401.9955,81.3797
1402.9597,80.9927
1403.9240,80.632
1404.8882,80.3146
1405.8524,80.0571
1406.8167,79.8644
1407.7809,79.7271
1408.7451,79.6309
1409.7094,79.5651
1410.6736,79.5219
1411.6378,79.49
1412.6021,79.4542
1413.5663,79.4009
1414.5305,79.3247
1415.4948,79.2263
1416.4590,79.1094
1417.4232,78.9807
1418.3875,78.8477
1419.3517,78.7057
1420.3159,78.5378
1421.2802,78.3376
1422.2444,78.1193
1423.2086,77.9052
1424.1729,77.7136
1425.1371,77.5549
1426.1013,77.4369
1427.0656,77.3713
1428.0298,77.3748
1428.9940,77.4594
1429.9583,77.6157
1430.9225,77.8083
1431.8867,77.9995
1432.8510,78.1737
1433.8152,78.3398
1434.7794,78.5129
1435.7437,78.6898
1436.7079,78.8286
1437.6721,78.8615
1438.6364,78.7515
1439.6006,78.5162
1440.5648,78.1971
1441.5291,77.827
1442.4933,77.4217
1443.4575,76.9848
1444.4218,76.5134
1445.3860,76.0028
1446.3502,75.4544
1447.3145,74.8861
1448.2787,74.3338
1449.2429,73.8354
1450.2072,73.4117
1451.1714,73.0634
1452.1356,72.7832
1453.0999,72.5619
1454.0641,72.3894
1455.0283,72.2639
1455.9926,72.2183
1456.9568,72.3031
1457.9210,72.4568
1458.8853,72.5284
1459.8495,72.4831
1460.8137,72.3993
1461.7780,72.3785
1462.7422,72.5226
1463.7064,72.9283
1464.6707,73.6266
1465.6349,74.5064
1466.5991,75.3794
1467.5634,76.1424
1468.5276,76.8216
1469.4918,77.5086
1470.4561,78.3079
1471.4203,79.3059
1472.3845,80.5038
1473.3488,81.7281
1474.3130,82.7196
1475.2772,83.367
1476.2415,83.7321
1477.2057,83.9171
1478.1699,83.9957
1479.1342,84.0178
1480.0984,84.0255
1481.0626,84.055
1482.0269,84.1253
1482.9911,84.23
1483.9553,84.345
1484.9196,84.4432
1485.8838,84.5052
1486.8480,84.5261
1487.8123,84.5241
1488.7765,84.5364
1489.7407,84.5724
1490.7050,84.5862
1491.6692,84.534
1492.6334,84.4156
1493.5977,84.2514
1494.5619,84.0554
1495.5261,83.833
1496.4904,83.597
1497.4546,83.3678
1498.4188,83.146
1499.3831,82.9082
1500.3473,82.6471
1501.3115,82.3851
1502.2758,82.1473
1503.2400,81.9292
1504.2042,81.671
1505.1685,81.2492
1506.1327,80.5622
1507.0969,79.7493
1508.0612,79.1016
1509.0254,78.6311
1509.9896,78.1996
1510.9539,77.7556
1511.9181,77.3237
1512.8823,76.9694
1513.8466,76.7919
1514.8108,76.8992
1515.7750,77.3497
1516.7393,78.1113
1517.7035,79.111
1518.6677,80.3424
1519.6320,81.8937
1520.5962,83.8123
1521.5604,85.9279
1522.5247,87.907
1523.4889,89.5381
1524.4531,90.8693
1525.4174,92.0686
1526.3816,93.2273
1527.3458,94.3001
1528.3101,95.1945
1529.2743,95.878
1530.2385,96.4046
1531.2028,96.876
1532.1670,97.3803
1533.1312,97.9241
1534.0955,98.4196
1535.0597,98.7786
1536.0239,98.9959
1536.9882,99.1164
1537.9524,99.163
1538.9166,99.1229
1539.8809,99.0367
1540.8451,99.0712
1541.8093,99.2945
1542.7736,99.5588
1543.7378,99.7589
1544.7020,99.9171
1545.6663,100.012
1546.6305,100.048
1547.5947,100.038
1548.5590,99.9993
1549.5232,99.9459
1550.4874,99.8791
1551.4517,99.7907
1552.4159,99.6779
1553.3801,99.5558
1554.3444,99.4484
1555.3086,99.3653
1556.2728,99.2836
1557.2371,99.1797
1558.2013,99.1143
1559.1655,99.135
1560.1298,99.0764
1561.0940,98.8343
1562.0582,98.4889
1563.0225,98.1415
1563.9867,97.8413
1564.9509,97.5928
1565.9152,97.3721
1566.8794,97.14
1567.8436,96.8605
1568.8079,96.5255
1569.7721,96.1622
1570.7363,95.8087
1571.7006,95.4864
1572.6648,95.1872
1573.6290,94.8692
1574.5933,94.4698
1575.5575,93.9597
1576.5217,93.3992
1577.4860,92.8817
1578.4502,92.4274
1579.4144,91.9994
1580.3787,91.5616
1581.3429,91.0933
1582.3071,90.5889
1583.2714,90.0584
1584.2356,89.52
1585.1998,88.9858
1586.1641,88.4563
1587.1283,87.9283
1588.0925,87.4051
1589.0568,86.8969
1590.0210,86.4131
1590.9852,85.957
1591.9495,85.5267
1592.9137,85.123
1593.8779,84.7515
1594.8422,84.419
1595.8064,84.1259
1596.7706,83.8646
1597.7349,83.6255
1598.6991,83.4032
1599.6633,83.1995
1600.6276,83.0218
1601.5918,82.8779
1602.5560,82.7707
1603.5203,82.6946
1604.4845,82.6383
1605.4487,82.593
1606.4130,82.5611
1607.3772,82.5598
1608.3414,82.6119
1609.3057,82.7263
1610.2699,82.8855
1611.2341,83.0626
1612.1984,83.2502
1613.1626,83.4757
1614.1268,83.8038
1615.0911,84.3199
1616.0553,85.0535
1617.0195,85.8731
1617.9838,86.5624
1618.9480,87.0376
1619.9122,87.3797
1620.8765,87.7155
1621.8407,88.1305
1622.8049,88.6352
1623.7692,89.1671
1624.7334,89.6434
1625.6976,90.0346
1626.6619,90.371
1627.6261,90.6887
1628.5903,90.9874
1629.5546,91.2409
1630.5188,91.4357
1631.4830,91.5861
1632.4473,91.7142
1633.4115,91.8296
1634.3757,91.9389
1635.3400,92.0733
1636.3042,92.2487
1637.2684,92.4026
1638.2327,92.4765
1639.1969,92.4855
1640.1611,92.4739
1641.1254,92.4718
1642.0896,92.4869
1643.0538,92.5053
1644.0181,92.4927
1644.9823,92.4151
1645.9465,92.2854
1646.9108,92.1728
1647.8750,92.1272
1648.8392,92.1502
1649.8035,92.233
1650.7677,92.3498
1651.7319,92.4441
1652.6962,92.4797
1653.6604,92.4693
1654.6246,92.3643
1655.5889,92.1287
1656.5531,91.84
1657.5173,91.5877
1658.4816,91.4057
1659.4458,91.2777
1660.4100,91.1658
1661.3743,91.0426
1662.3385,90.9067
1663.3027,90.7679
1664.2670,90.631
1665.2312,90.4969
1666.1954,90.3605
1667.1597,90.2058
1668.1239,90.02
1669.0881,89.8204
1670.0524,89.652
1671.0166,89.5387
1671.9808,89.4671
1672.9451,89.4149
1673.9093,89.361
1674.8735,89.2784
1675.8378,89.1369
1676.8020,88.9249
1677.7662,88.6676
1678.7305,88.4155
1679.6947,88.2124
1680.6589,88.0667
1681.6232,87.9436
1682.5874,87.7909
1683.5516,87.5946
1684.5159,87.3758
1685.4801,87.1233
1686.4443,86.8197
1687.4086,86.4851
1688.3728,86.1545
1689.3370,85.8537
1690.3013,85.5951
1691.2655,85.3755
1692.2297,85.1738
1693.1940,84.9523
1694.1582,84.6697
1695.1224,84.3098
1696.0867,83.9122
1697.0509,83.5701
1698.0151,83.3626
1698.9794,83.2699
1699.9436,83.1803
1700.9078,82.9994
1701.8721,82.7272
1702.8363,82.4326
1703.8005,82.1917
1704.7648,82.0513
1705.7290,82.0176
1706.6932,82.0593
1707.6575,82.1278
1708.6217,82.1887
1709.5859,82.2368
1710.5502,82.2857
1711.5144,82.3478
1712.4786,82.4265
1713.4429,82.5231
1714.4071,82.659
1715.3713,82.9023
1716.3356,83.3394
1717.2998,83.9335
1718.2640,84.4783
1719.2283,84.8257
1720.1925,85.0105
1721.1567,85.1446
1722.1210,85.3139
1723.0852,85.549
1724.0494,85.8343
1725.0137,86.1325
1725.9779,86.4107
1726.9421,86.6573
1727.9064,86.8811
1728.8706,87.1007
1729.8348,87.3381
1730.7991,87.6201
1731.7633,87.9829
1732.7275,88.4539
1733.6918,88.9847
1734.6560,89.4348
1735.6202,89.7103
1736.5845,89.8545
1737.5487,89.9759
1738.5129,90.1578
1739.4772,90.4251
1740.4414,90.7474
1741.4056,91.066
1742.3699,91.336
1743.3341,91.5522
1744.2983,91.7389
1745.2626,91.9235
1746.2268,92.1247
1747.1910,92.3615
1748.1553,92.6614
1749.1195,93.0424
1750.0837,93.4668
1751.0480,93.8441
1752.0122,94.108
1752.9764,94.2654
1753.9407,94.369
1754.9049,94.4702
1755.8691,94.5951
1756.8334,94.7429
1757.7976,94.9003
1758.7618,95.0584
1759.7261,95.2207
1760.6903,95.3948
1761.6545,95.5772
1762.6188,95.7492
1763.5830,95.8913
1764.5472,96.0012
1765.5115,96.0924
1766.4757,96.18
1767.4399,96.2682
1768.4042,96.3514
1769.3684,96.4269
1770.3326,96.5118
1771.2969,96.6431
1772.2611,96.8401
1773.2253,97.0652
1774.1896,97.2556
1775.1538,97.3871
1776.1180,97.4835
1777.0823,97.5815
1778.0465,97.7028
1779.0107,97.8487
1779.9750,98.0072
1780.9392,98.1647
1781.9034,98.3136
1782.8677,98.4513
1783.8319,98.5732
1784.7961,98.6702
1785.7604,98.735
1786.7246,98.7719
1787.6888,98.7961
1788.6531,98.823
1789.6173,98.8572
1790.5815,98.8957
1791.5458,98.9389
1792.5100,98.9866
1793.4742,99.0236
1794.4385,99.035
1795.4027,99.0286
1796.3669,99.0271
1797.3312,99.046
1798.2954,99.0863
1799.2596,99.1402
1800.2239,99.1993
1801.1881,99.2561
1802.1523,99.3028
1803.1166,99.334
1804.0808,99.3501
1805.0450,99.3544
1806.0093,99.3502
1806.9735,99.34
1807.9377,99.3269
1808.9020,99.3179
1809.8662,99.3223
1810.8304,99.3452
1811.7947,99.3815
1812.7589,99.42
1813.7231,99.4521
1814.6874,99.475
1815.6516,99.4889
1816.6158,99.4942
1817.5801,99.4912
1818.5443,99.4813
1819.5085,99.4796
1820.4728,99.4907
1821.4370,99.5081
1822.4012,99.5313
1823.3655,99.5553
1824.3297,99.5724
1825.2939,99.5762
1826.2582,99.5661
1827.2224,99.5498
1828.1866,99.5418
1829.1509,99.5564
1830.1151,99.5946
1831.0793,99.6375
1832.0436,99.6634
1833.0078,99.6675
1833.9720,99.6609
1834.9363,99.6558
1835.9005,99.657
1836.8647,99.6625
1837.8290,99.6699
1838.7932,99.6811
1839.7574,99.7024
1840.7217,99.737
1841.6859,99.7773
1842.6501,99.809
1843.6144,99.8239
1844.5786,99.8241
1845.5428,99.8131
1846.5071,99.7942
1847.4713,99.7773
1848.4355,99.7738
1849.3998,99.7869
1850.3640,99.8095
1851.3282,99.8307
1852.2925,99.8433
1853.2567,99.847
1854.2209,99.8457
1855.1852,99.8432
1856.1494,99.8409
1857.1136,99.839
1858.0779,99.8379
1859.0421,99.839
1860.0063,99.8416
1860.9706,99.8421
1861.9348,99.8345
1862.8990,99.8155
1863.8633,99.7859
1864.8275,99.7505
1865.7917,99.7159
1866.7560,99.6941
1867.7202,99.703
1868.6844,99.7514
1869.6487,99.82
1870.6129,99.8748
1871.5771,99.8996
1872.5414,99.9026
1873.5056,99.8994
1874.4698,99.8989
1875.4341,99.9016
1876.3983,99.9044
1877.3625,99.9052
1878.3268,99.9043
1879.2910,99.9028
1880.2552,99.9009
1881.2195,99.8969
1882.1837,99.8884
1883.1479,99.8746
1884.1122,99.8578
1885.0764,99.8423
1886.0406,99.8325
1887.0049,99.8301
1887.9691,99.8342
1888.9333,99.8411
1889.8976,99.8453
1890.8618,99.8409
1891.8260,99.8267
1892.7903,99.8074
1893.7545,99.7908
1894.7188,99.7831
1895.6830,99.7859
1896.6472,99.7953
1897.6115,99.8046
1898.5757,99.8081
1899.5399,99.8045
1900.5042,99.7958
1901.4684,99.7846
1902.4326,99.7724
1903.3969,99.7581
1904.3611,99.7395
1905.3253,99.7156
1906.2896,99.6887
1907.2538,99.6643
1908.2180,99.6489
1909.1823,99.6457
1910.1465,99.6514
1911.1107,99.658
1912.0750,99.6595
1913.0392,99.6567
1914.0034,99.6545
1914.9677,99.6568
1915.9319,99.6627
1916.8961,99.6666
1917.8604,99.661
1918.8246,99.6411
1919.7888,99.6086
1920.7531,99.5732
1921.7173,99.5474
1922.6815,99.5387
1923.6458,99.546
1924.6100,99.5605
1925.5742,99.5721
1926.5385,99.5759
1927.5027,99.5725
1928.4669,99.5648
1929.4312,99.555
1930.3954,99.5448
1931.3596,99.5363
1932.3239,99.5322
1933.2881,99.5349
1934.2523,99.5446
1935.2166,99.5578
1936.1808,99.5688
1937.1450,99.573
1938.1093,99.5691
1939.0735,99.5587
1940.0377,99.5447
1941.0020,99.531
1941.9662,99.522
1942.9304,99.5202
1943.8947,99.5251
1944.8589,99.5345
1945.8231,99.5478
1946.7874,99.5657
1947.7516,99.5877
1948.7158,99.6107
1949.6801,99.6305
1950.6443,99.6442
1951.6085,99.652
1952.5728,99.6568
1953.5370,99.6619
1954.5012,99.6697
1955.4655,99.6802
1956.4297,99.6922
1957.3939,99.7045
1958.3582,99.7164
1959.3224,99.7276
1960.2866,99.737
1961.2509,99.7432
1962.2151,99.7452
1963.1793,99.7433
1964.1436,99.74
1965.1078,99.7393
1966.0720,99.7458
1967.0363,99.7612
1968.0005,99.7836
1968.9647,99.8074
1969.9290,99.8277
1970.8932,99.8421
1971.8574,99.8512
1972.8217,99.8569
1973.7859,99.8603
1974.7501,99.8627
1975.7144,99.8645
1976.6786,99.8657
1977.6428,99.8668
1978.6071,99.8679
1979.5713,99.8692
1980.5355,99.8705
1981.4998,99.8718
1982.4640,99.8728
1983.4282,99.8733
1984.3925,99.873
1985.3567,99.8715
1986.3209,99.8685
1987.2852,99.8643
1988.2494,99.8597
1989.2136,99.8561
1990.1779,99.8553
1991.1421,99.8587
1992.1063,99.8664
1993.0706,99.8761
1994.0348,99.8848
1994.9990,99.8909
1995.9633,99.8946
1996.9275,99.897
1997.8917,99.8995
1998.8560,99.9025
1999.8202,99.9058
2000.7844,99.9088
2001.7487,99.9104
2002.7129,99.9096
2003.6771,99.9061
2004.6414,99.9002
2005.6056,99.8931
2006.5698,99.8862
2007.5341,99.8807
2008.4983,99.8772
2009.4625,99.8751
2010.4268,99.8731
2011.3910,99.8695
2012.3552,99.8631
2013.3195,99.8537
2014.2837,99.8425
2015.2479,99.832
2016.2122,99.8251
2017.1764,99.8236
2018.1406,99.8269
2019.1049,99.8324
2020.0691,99.837
2021.0333,99.8393
2021.9976,99.8395
2022.9618,99.839
2023.9260,99.8391
2024.8903,99.8403
2025.8545,99.842
2026.8187,99.8431
2027.7830,99.8427
2028.7472,99.8405
2029.7114,99.8366
2030.6757,99.8313
2031.6399,99.8249
2032.6041,99.8179
2033.5684,99.8111
2034.5326,99.8053
2035.4968,99.8008
2036.4611,99.7972
2037.4253,99.7935
2038.3895,99.7888
2039.3538,99.783
2040.3180,99.777
2041.2822,99.7725
2042.2465,99.7704
2043.2107,99.7705
2044.1749,99.7711
2045.1392,99.7706
2046.1034,99.7675
2047.0676,99.7618
2048.0320,99.7543
2048.9961,99.7462
2049.9604,99.739
2050.9246,99.7335
2051.8889,99.7296
2052.8530,99.7268
2053.8174,99.7242
2054.7815,99.7215
2055.7458,99.719
2056.7100,99.717
2057.6743,99.7156
2058.6384,99.7139
2059.6028,99.7102
2060.5669,99.7031
2061.5313,99.6929
2062.4954,99.6819
2063.4597,99.6741
2064.4238,99.6727
2065.3882,99.6788
2066.3523,99.6902
2067.3167,99.703
2068.2808,99.7134
2069.2451,99.7196
2070.2092,99.7222
2071.1736,99.7227
2072.1377,99.7228
2073.1021,99.7233
2074.0662,99.7238
2075.0305,99.7236
2075.9946,99.7221
2076.9590,99.7198
2077.9231,99.7174
2078.8875,99.716
2079.8516,99.7162
2080.8159,99.7178
2081.7800,99.7202
2082.7444,99.722
2083.7085,99.7228
2084.6729,99.7225
2085.6370,99.722
2086.6013,99.7221
2087.5654,99.7233
2088.5298,99.7253
2089.4939,99.7271
2090.4583,99.7275
2091.4224,99.7257
2092.3867,99.7216
2093.3508,99.7163
2094.3152,99.711
2095.2793,99.7076
2096.2437,99.707
2097.2078,99.7093
2098.1721,99.713
2099.1362,99.7157
2100.1006,99.7144
2101.0647,99.7103
2102.0291,99.7036
2102.9932,99.6964
2103.9575,99.6908
2104.9216,99.6877
2105.8860,99.6861
2106.8501,99.6847
2107.8145,99.6821
2108.7786,99.678
2109.7429,99.673
2110.7070,99.6679
2111.6714,99.6641
2112.6355,99.6626
2113.5999,99.6643
2114.5640,99.6692
2115.5283,99.6766
2116.4924,99.6845
2117.4568,99.6907
2118.4209,99.6931
2119.3853,99.6911
2120.3494,99.6855
2121.3137,99.6779
2122.2778,99.6701
2123.2422,99.6635
2124.2063,99.6587
2125.1707,99.6561
2126.1348,99.6561
2127.0991,99.659
2128.0632,99.6649
2129.0276,99.6732
2129.9917,99.6823
2130.9561,99.6899
2131.9202,99.6939
2132.8845,99.6935
2133.8486,99.69
2134.8130,99.6864
2135.7771,99.6865
2136.7415,99.6932
2137.7056,99.7063
2138.6699,99.7231
2139.6340,99.7392
2140.5984,99.7508
2141.5625,99.7571
2142.5269,99.76
2143.4910,99.763
2144.4553,99.7691
2145.4194,99.7789
2146.3838,99.7906
2147.3479,99.8012
2148.3123,99.8085
2149.2764,99.8119
2150.2407,99.8127
2151.2048,99.8128
2152.1692,99.814
2153.1333,99.8175
2154.0977,99.8233
2155.0618,99.831
2156.0261,99.8397
2156.9902,99.8483
2157.9546,99.8564
2158.9187,99.8638
2159.8831,99.8713
2160.8472,99.8795
2161.8115,99.8885
2162.7756,99.8971
2163.7400,99.9035
2164.7041,99.9058
2165.6685,99.9035
2166.6326,99.8981
2167.5969,99.8925
2168.5610,99.8896
2169.5254,99.891
2170.4895,99.8963
2171.4539,99.9036
2172.4180,99.9104
2173.3823,99.9152
2174.3464,99.9179
2175.3108,99.9193
2176.2749,99.9207
2177.2393,99.9226
2178.2034,99.9252
2179.1677,99.9278
2180.1318,99.9298
2181.0962,99.9305
2182.0603,99.9297
2183.0247,99.9278
2183.9888,99.9255
2184.9531,99.924
2185.9172,99.9249
2186.8816,99.9291
2187.8457,99.9367
2188.8101,99.9465
2189.7742,99.9562
2190.7385,99.9638
2191.7026,99.9679
2192.6670,99.9691
2193.6311,99.9689
2194.5955,99.9691
2195.5596,99.9709
2196.5239,99.9739
2197.4880,99.9769
2198.4524,99.9785
2199.4165,99.9779
2200.3809,99.9755
2201.3450,99.9727
2202.3093,99.9707
2203.2734,99.9704
2204.2378,99.9719
2205.2019,99.9752
2206.1663,99.9799
2207.1304,99.9857
2208.0947,99.9922
2209.0588,99.9982
2210.0232,100.002
2210.9873,100.002
2211.9517,99.9973
2212.9158,99.9892
2213.8801,99.9799
2214.8442,99.9724
2215.8086,99.9684
2216.7727,99.9681
2217.7371,99.9699
2218.7012,99.9714
2219.6655,99.9707
2220.6296,99.9676
2221.5940,99.9635
2222.5581,99.9599
2223.5225,99.9583
2224.4866,99.9583
2225.4509,99.9586
2226.4150,99.9573
2227.3794,99.9531
2228.3435,99.9457
2229.3079,99.9358
2230.2720,99.9244
2231.2363,99.9129
2232.2004,99.9024
2233.1648,99.8935
2234.1289,99.8863
2235.0933,99.8807
2236.0574,99.8765
2237.0217,99.8731
2237.9858,99.8699
2238.9502,99.8662
2239.9143,99.8613
2240.8787,99.855
2241.8428,99.8468
2242.8071,99.8371
2243.7712,99.826
2244.7356,99.8142
2245.6997,99.8023
2246.6641,99.7911
2247.6282,99.7807
2248.5925,99.7712
2249.5566,99.762
2250.5210,99.7523
2251.4851,99.7413
2252.4495,99.7287
2253.4136,99.7148
2254.3779,99.7001
2255.3420,99.6856
2256.3064,99.6721
2257.2705,99.6601
2258.2349,99.6497
2259.1990,99.6401
2260.1633,99.6305
2261.1274,99.6202
2262.0918,99.6089
2263.0559,99.5977
2264.0203,99.5881
2264.9844,99.581
2265.9487,99.5767
2266.9128,99.5734
2267.8772,99.5689
2268.8413,99.5615
2269.8057,99.5514
2270.7698,99.5405
2271.7341,99.5315
2272.6982,99.5265
2273.6626,99.526
2274.6267,99.5287
2275.5911,99.5331
2276.5552,99.5384
2277.5195,99.5447
2278.4836,99.5524
2279.4480,99.561
2280.4121,99.5689
2281.3765,99.5732
2282.3406,99.5716
2283.3049,99.5626
2284.2690,99.5468
2285.2334,99.5259
2286.1975,99.5026
2287.1619,99.4789
2288.1260,99.4555
2289.0903,99.4313
2290.0544,99.405
2291.0188,99.3762
2291.9829,99.3468
2292.9473,99.3205
2293.9114,99.3016
2294.8757,99.2927
2295.8398,99.2937
2296.8042,99.3026
2297.7683,99.3168
2298.7327,99.3354
2299.6968,99.3589
2300.6611,99.3884
2301.6252,99.4234
2302.5896,99.4609
2303.5537,99.4958
2304.5181,99.5227
2305.4822,99.539
2306.4465,99.5472
2307.4106,99.5548
2308.3750,99.5721
2309.3391,99.6069
2310.3035,99.6607
2311.2676,99.7267
2312.2319,99.7933
2313.1960,99.8501
2314.1604,99.8944
2315.1245,99.9318
2316.0889,99.9735
2317.0530,100.029
2318.0173,100.101
2318.9814,100.179
2319.9458,100.24
2320.9099,100.255
2321.8743,100.203
2322.8384,100.078
2323.8027,99.903
2324.7668,99.7202
2325.7312,99.5772
2326.6953,99.5069
2327.6597,99.5141
2328.6238,99.5723
2329.5881,99.6333
2330.5522,99.6489
2331.5166,99.5933
2332.4807,99.4743
2333.4451,99.3257
2334.4092,99.1858
2335.3735,99.0788
2336.3376,99.0071
2337.3020,98.9547
2338.2661,98.8999
2339.2305,98.829
2340.1946,98.7513
2341.1589,98.7079
2342.1230,98.7646
2343.0874,98.959
2344.0515,99.219
2345.0159,99.38
2345.9800,99.3392
2346.9443,99.1481
2347.9084,98.9432
2348.8728,98.8512
2349.8369,98.9033
2350.8013,99.0438
2351.7654,99.1694
2352.7297,99.1849
2353.6938,99.0738
2354.6582,98.9024
2355.6223,98.7389
2356.5867,98.5921
2357.5508,98.4441
2358.5151,98.3045
2359.4792,98.2115
2360.4436,98.1934
2361.4077,98.2506
2362.3721,98.3748
2363.3362,98.5638
2364.3005,98.8119
2365.2646,99.0968
2366.2290,99.385
2367.1931,99.6505
2368.1575,99.885
2369.1216,100.093
2370.0859,100.278
2371.0500,100.439
2372.0144,100.57
2372.9785,100.66
2373.9429,100.701
2374.9070,100.685
2375.8713,100.614
2376.8354,100.496
2377.7998,100.346
2378.7639,100.184
2379.7283,100.028
2380.6924,99.8929
2381.6567,99.7893
2382.6208,99.7192
2383.5852,99.6797
2384.5493,99.6639
2385.5137,99.6638
2386.4778,99.6718
2387.4421,99.6819
2388.4063,99.6908
2389.3706,99.6974
2390.3347,99.7018
2391.2991,99.7051
2392.2632,99.7086
2393.2275,99.7131
2394.1917,99.7191
2395.1560,99.7264
2396.1201,99.7348
2397.0845,99.7437
2398.0486,99.7523
2399.0129,99.7605
2399.9771,99.7678
2400.9414,99.7741
2401.9055,99.7791
2402.8699,99.783
2403.8340,99.786
2404.7983,99.7889
2405.7625,99.7923
2406.7268,99.7961
2407.6909,99.8002
2408.6553,99.804
2409.6194,99.8074
2410.5837,99.8108
2411.5479,99.8148
2412.5122,99.8202
2413.4763,99.8269
2414.4407,99.834
2415.4048,99.8405
2416.3691,99.8461
2417.3333,99.8512
2418.2976,99.857
2419.2617,99.8641
2420.2261,99.8721
2421.1902,99.8799
2422.1545,99.8861
2423.1187,99.8907
2424.0830,99.8949
2425.0471,99.9008
2426.0115,99.9095
2426.9756,99.9209
2427.9399,99.9331
2428.9041,99.9438
2429.8684,99.952
2430.8325,99.9577
2431.7969,99.9622
2432.7610,99.967
2433.7253,99.9727
2434.6895,99.9789
2435.6538,99.9851
2436.6179,99.9912
2437.5823,99.9974
2438.5464,100.004
2439.5107,100.012
2440.4749,100.019
2441.4392,100.026
2442.4033,100.032
2443.3677,100.037
2444.3318,100.042
2445.2961,100.047
2446.2603,100.051
2447.2246,100.054
2448.1887,100.055
2449.1531,100.055
2450.1172,100.054
2451.0815,100.056
2452.0457,100.06
2453.0100,100.067
2453.9741,100.076
2454.9385,100.082
2455.9026,100.084
2456.8669,100.08
2457.8311,100.074
2458.7954,100.069
2459.7595,100.068
2460.7239,100.073
2461.6880,100.082
2462.6523,100.093
2463.6165,100.102
2464.5808,100.108
2465.5449,100.109
2466.5093,100.107
2467.4734,100.103
2468.4377,100.099
2469.4019,100.097
2470.3662,100.096
2471.3303,100.099
2472.2947,100.105
2473.2588,100.114
2474.2231,100.123
2475.1873,100.131
2476.1516,100.135
2477.1157,100.133
2478.0801,100.126
2479.0442,100.118
2480.0085,100.113
2480.9727,100.112
2481.9370,100.118
2482.9011,100.127
2483.8655,100.136
2484.8296,100.143
2485.7939,100.147
2486.7581,100.149
2487.7224,100.152
2488.6865,100.156
2489.6509,100.162
2490.6150,100.167
2491.5793,100.169
2492.5435,100.168
2493.5078,100.166
2494.4719,100.165
2495.4363,100.169
2496.4004,100.178
2497.3647,100.19
2498.3289,100.204
2499.2932,100.214
2500.2573,100.22
2501.2217,100.222
2502.1858,100.222
2503.1501,100.224
2504.1143,100.229
2505.0786,100.238
2506.0427,100.248
2507.0071,100.257
2507.9712,100.263
2508.9355,100.265
2509.8997,100.262
2510.8640,100.258
2511.8281,100.256
2512.7925,100.257
2513.7566,100.263
2514.7209,100.274
2515.6851,100.287
2516.6494,100.297
2517.6135,100.304
2518.5779,100.305
2519.5420,100.304
2520.5063,100.304
2521.4705,100.306
2522.4348,100.313
2523.3989,100.322
2524.3633,100.332
2525.3274,100.341
2526.2917,100.349
2527.2559,100.355
2528.2202,100.36
2529.1843,100.363
2530.1487,100.365
2531.1128,100.365
2532.0771,100.364
2533.0413,100.363
2534.0056,100.362
2534.9697,100.364
2535.9341,100.368
2536.8982,100.375
2537.8625,100.385
2538.8267,100.395
2539.7910,100.406
2540.7551,100.416
2541.7195,100.424
2542.6836,100.432
2543.6479,100.439
2544.6121,100.445
2545.5764,100.451
2546.5405,100.456
2547.5049,100.46
2548.4690,100.464
2549.4333,100.467
2550.3975,100.472
2551.3618,100.478
2552.3259,100.486
2553.2903,100.495
2554.2544,100.506
2555.2188,100.516
2556.1829,100.526
2557.1472,100.534
2558.1113,100.543
2559.0757,100.55
2560.0398,100.557
2561.0042,100.562
2561.9683,100.563
2562.9326,100.563
2563.8967,100.562
2564.8611,100.563
2565.8252,100.569
2566.7896,100.578
2567.7537,100.59
2568.7180,100.601
2569.6821,100.608
2570.6465,100.611
2571.6106,100.611
2572.5750,100.608
2573.5391,100.605
2574.5034,100.605
2575.4675,100.608
2576.4319,100.614
2577.3960,100.623
2578.3604,100.631
2579.3245,100.638
2580.2888,100.642
2581.2529,100.644
2582.2173,100.644
2583.1814,100.644
2584.1458,100.645
2585.1099,100.646
2586.0742,100.647
2587.0383,100.648
2588.0027,100.649
2588.9668,100.649
2589.9312,100.65
2590.8953,100.649
2591.8596,100.647
2592.8237,100.643
2593.7881,100.638
2594.7522,100.634
2595.7166,100.633
2596.6807,100.637
2597.6450,100.643
2598.6091,100.652
2599.5735,100.66
2600.5376,100.667
2601.5020,100.671
2602.4661,100.673
2603.4304,100.672
2604.3945,100.671
2605.3589,100.669
2606.3230,100.67
2607.2874,100.674
2608.2515,100.68
2609.2158,100.686
2610.1799,100.692
2611.1443,100.694
2612.1084,100.695
2613.0728,100.693
2614.0369,100.692
2615.0012,100.691
2615.9653,100.691
2616.9297,100.693
2617.8938,100.694
2618.8582,100.695
2619.8223,100.694
2620.7866,100.692
2621.7507,100.688
2622.7151,100.684
2623.6792,100.682
2624.6436,100.683
2625.6077,100.688
2626.5720,100.694
2627.5361,100.701
2628.5005,100.706
2629.4646,100.708
2630.4290,100.707
2631.3931,100.706
2632.3574,100.704
2633.3215,100.705
2634.2859,100.707
2635.2500,100.71
2636.2144,100.712
2637.1785,100.713
2638.1428,100.714
2639.1069,100.716
2640.0713,100.721
2641.0354,100.729
2641.9998,100.737
2642.9639,100.744
2643.9282,100.746
2644.8923,100.745
2645.8567,100.742
2646.8208,100.74
2647.7852,100.741
2648.7493,100.744
2649.7136,100.75
2650.6777,100.757
2651.6421,100.765
2652.6062,100.773
2653.5706,100.781
2654.5347,100.789
2655.4990,100.796
2656.4631,100.802
2657.4275,100.809
2658.3916,100.819
2659.3560,100.83
2660.3201,100.844
2661.2844,100.858
2662.2485,100.871
2663.2129,100.88
2664.1770,100.886
2665.1414,100.891
2666.1055,100.897
2667.0698,100.907
2668.0339,100.921
2668.9983,100.938
2669.9624,100.956
2670.9268,100.972
2671.8909,100.984
2672.8552,100.992
2673.8193,100.999
2674.7837,101.006
2675.7478,101.014
2676.7122,101.022
2677.6763,101.029
2678.6406,101.032
2679.6047,101.031
2680.5691,101.026
2681.5332,101.02
2682.4976,101.016
2683.4617,101.015
2684.4260,101.018
2685.3901,101.022
2686.3545,101.027
2687.3186,101.03
2688.2830,101.031
2689.2471,101.032
2690.2114,101.034
2691.1755,101.037
2692.1399,101.042
2693.1040,101.049
2694.0684,101.058
2695.0325,101.067
2695.9968,101.076
2696.9609,101.082
2697.9253,101.085
2698.8894,101.085
2699.8538,101.083
2700.8179,101.079
2701.7822,101.074
2702.7463,101.068
2703.7107,101.061
2704.6748,101.051
2705.6392,101.04
2706.6033,101.026
2707.5676,101.012
2708.5317,100.998
2709.4961,100.986
2710.4602,100.975
2711.4246,100.965
2712.3887,100.956
2713.3530,100.945
2714.3171,100.931
2715.2815,100.915
2716.2456,100.897
2717.2100,100.878
2718.1741,100.861
2719.1384,100.847
2720.1025,100.838
2721.0669,100.832
2722.0310,100.83
2722.9954,100.827
2723.9595,100.823
2724.9238,100.816
2725.8879,100.806
2726.8523,100.794
2727.8164,100.78
2728.7808,100.766
2729.7449,100.753
2730.7092,100.74
2731.6733,100.729
2732.6377,100.719
2733.6018,100.71
2734.5662,100.702
2735.5303,100.693
2736.4946,100.682
2737.4587,100.667
2738.4231,100.649
2739.3872,100.628
2740.3516,100.608
2741.3157,100.592
2742.2800,100.582
2743.2441,100.579
2744.2085,100.583
2745.1726,100.59
2746.1370,100.596
2747.1011,100.598
2748.0654,100.594
2749.0295,100.584
2749.9939,100.57
2750.9580,100.555
2751.9224,100.545
2752.8865,100.539
2753.8508,100.537
2754.8149,100.535
2755.7793,100.527
2756.7434,100.512
2757.7078,100.489
2758.6719,100.462
2759.6362,100.437
2760.6003,100.417
2761.5647,100.405
2762.5288,100.398
2763.4932,100.394
2764.4573,100.387
2765.4216,100.375
2766.3857,100.359
2767.3501,100.339
2768.3142,100.319
2769.2786,100.301
2770.2427,100.285
2771.2070,100.268
2772.1711,100.247
2773.1355,100.22
2774.0996,100.186
2775.0640,100.148
2776.0281,100.111
2776.9924,100.077
2777.9565,100.044
2778.9209,100.011
2779.8850,99.9725
2780.8494,99.9271
2781.8135,99.8769
2782.7778,99.8267
2783.7419,99.7813
2784.7063,99.743
2785.6704,99.71
2786.6348,99.6771
2787.5989,99.6393
2788.5632,99.5934
2789.5273,99.54
2790.4917,99.4823
2791.4558,99.424
2792.4202,99.3675
2793.3843,99.3127
2794.3486,99.2578
2795.3127,99.2012
2796.2771,99.1416
2797.2412,99.0792
2798.2056,99.0144
2799.1697,98.9473
2800.1340,98.8762
2801.0981,98.7964
2802.0625,98.7138
2803.0266,98.6301
2803.9910,98.547
2804.9551,98.4657
2805.9194,98.3852
2806.8835,98.3027
2807.8479,98.2146
2808.8120,98.1182
2809.7764,98.0126
2810.7405,97.8985
2811.7048,97.7776
2812.6689,97.651
2813.6333,97.5189
2814.5974,97.3808
2815.5618,97.2359
2816.5259,97.083
2817.4902,96.9206
2818.4543,96.7467
2819.4187,96.559
2820.3828,96.3556
2821.3472,96.1361
2822.3113,95.901
2823.2756,95.6512
2824.2397,95.3872
2825.2041,95.1089
2826.1682,94.8154
2827.1326,94.5059
2828.0967,94.1806
2829.0610,93.8402
2830.0251,93.4865
2830.9895,93.1213
2831.9536,92.7471
2832.9180,92.3664
2833.8821,91.9821
2834.8464,91.5969
2835.8105,91.2133
2836.7749,90.8345
2837.7390,90.4636
2838.7034,90.1043
2839.6675,89.7589
2840.6318,89.4269
2841.5959,89.1028
2842.5603,88.7774
2843.5244,88.4412
2844.4888,88.0897
2845.4529,87.7282
2846.4172,87.3726
2847.3813,87.0444
2848.3457,86.7618
2849.3098,86.5317
2850.2742,86.346
2851.2383,86.1854
2852.2026,86.0282
2853.1667,85.8584
2854.1311,85.6705
2855.0952,85.4667
2856.0596,85.2519
2857.0237,85.0278
2857.9880,84.7916
2858.9521,84.5376
2859.9165,84.2614
2860.8806,83.963
2861.8450,83.6472
2862.8091,83.3221
2863.7734,82.9971
2864.7375,82.6807
2865.7019,82.3788
2866.6660,82.0946
2867.6304,81.8289
2868.5945,81.5807
2869.5588,81.3486
2870.5229,81.1312
2871.4873,80.926
2872.4514,80.7296
2873.4158,80.5369
2874.3799,80.3424
2875.3442,80.1419
2876.3083,79.9329
2877.2727,79.715
2878.2368,79.4891
2879.2012,79.2581
2880.1653,79.029
2881.1296,78.8136
2882.0938,78.6278
2883.0581,78.4873
2884.0222,78.402
2884.9866,78.3708
2885.9507,78.3802
2886.9150,78.4067
2887.8792,78.4244
2888.8435,78.4135
2889.8076,78.3696
2890.7720,78.3056
2891.7361,78.2445
2892.7004,78.203
2893.6646,78.174
2894.6289,78.1203
2895.5930,77.9896
2896.5574,77.7445
2897.5215,77.3931
2898.4858,76.9972
2899.4500,76.6511
2900.4143,76.4385
2901.3784,76.3931
2902.3428,76.4848
2903.3069,76.6395
2904.2712,76.7767
2905.2354,76.8428
2906.1997,76.8232
2907.1638,76.7331
2908.1282,76.599
2909.0923,76.4445
2910.0566,76.2866
2911.0208,76.1364
2911.9851,76.0013
2912.9492,75.8835
2913.9136,75.779
2914.8777,75.6796
2915.8420,75.5774
2916.8062,75.4696
2917.7705,75.3587
2918.7346,75.2499
2919.6990,75.1471
2920.6631,75.0514
2921.6274,74.9617
2922.5916,74.8767
2923.5559,74.7953
2924.5200,74.7167
2925.4844,74.6406
2926.4485,74.5685
2927.4128,74.504
2928.3770,74.4524
2929.3413,74.4179
2930.3054,74.4016
2931.2698,74.402
2932.2339,74.4171
2933.1982,74.4481
2934.1624,74.5
2935.1267,74.5791
2936.0908,74.6884
2937.0552,74.8248
2938.0193,74.9799
2938.9836,75.1442
2939.9478,75.313
2940.9121,75.4886
2941.8762,75.6788
2942.8406,75.8913
2943.8047,76.1265
2944.7690,76.3746
2945.7332,76.6171
2946.6975,76.8337
2947.6616,77.0095
2948.6260,77.14
2949.5901,77.2307
2950.5544,77.2926
2951.5186,77.3368
2952.4829,77.3707
2953.4470,77.3977
2954.4114,77.4198
2955.3755,77.4393
2956.3398,77.4606
2957.3040,77.4885
2958.2683,77.5257
2959.2324,77.5701
2960.1968,77.6145
2961.1609,77.6476
2962.1252,77.6585
2963.0894,77.6406
2964.0537,77.5945
2965.0178,77.5275
2965.9822,77.4521
2966.9463,77.3828
2967.9106,77.3344
2968.8748,77.321
2969.8391,77.3556
2970.8032,77.4472
2971.7676,77.5976
2972.7317,77.7996
2973.6960,78.0382
2974.6602,78.2955
2975.6245,78.5568
2976.5886,78.8141
2977.5530,79.0666
2978.5171,79.3169
2979.4814,79.5663
2980.4456,79.8096
2981.4099,80.0312
2982.3740,80.2072
2983.3384,80.3144
2984.3025,80.3471
2985.2668,80.3341
2986.2310,80.3439
2987.1953,80.4674
2988.1594,80.7817
2989.1238,81.3098
2990.0879,82.0028
2991.0522,82.7559
2992.0164,83.453
2992.9807,84.0165
2993.9448,84.4342
2994.9092,84.7514
2995.8733,85.0379
2996.8376,85.3497
2997.8018,85.7094
2998.7661,86.1095
2999.7302,86.5303
3000.6946,86.9565
3001.6587,87.3836
3002.6230,87.8153
3003.5872,88.256
3004.5515,88.7066
3005.5156,89.1646
3006.4800,89.6255
3007.4441,90.0847
3008.4084,90.5388
3009.3726,90.9862
3010.3369,91.4263
3011.3010,91.8601
3012.2654,92.2878
3013.2295,92.7082
3014.1938,93.1181
3015.1580,93.5133
3016.1223,93.8908
3017.0864,94.2497
3018.0508,94.5908
3019.0149,94.9158
3019.9792,95.2263
3020.9434,95.5239
3021.9077,95.8103
3022.8718,96.0879
3023.8362,96.3578
3024.8003,96.6198
3025.7646,96.8717
3026.7288,97.1107
3027.6931,97.335
3028.6572,97.5452
3029.6216,97.7431
3030.5857,97.9305
3031.5500,98.1078
3032.5142,98.2737
3033.4785,98.4273
3034.4426,98.5695
3035.4070,98.7038
3036.3711,98.8339
3037.3354,98.9615
3038.2996,99.0835
3039.2639,99.1934
3040.2280,99.2837
3041.1924,99.3503
3042.1565,99.3946
3043.1208,99.4233
3044.0850,99.4451
3045.0493,99.4673
3046.0134,99.4926
3046.9778,99.5194
3047.9419,99.5427
3048.9063,99.557
3049.8704,99.5582
3050.8347,99.5214
3051.7988,99.4682
3052.7632,99.4101
3053.7273,99.353
3054.6917,99.3016
3055.6558,99.2576
3056.6201,99.2192
3057.5842,99.1817
3058.5486,99.1392
3059.5127,99.0867
3060.4771,99.0221
3061.4412,98.9471
3062.4055,98.8672
3063.3696,98.7894
3064.3340,98.7204
3065.2981,98.6628
3066.2625,98.6148
3067.2266,98.571
3068.1909,98.5255
3069.1550,98.4748
3070.1194,98.4186
3071.0835,98.3587
3072.0479,98.2971
3073.0120,98.2344
3073.9763,98.1699
3074.9404,98.1021
3075.9048,98.031
3076.8689,97.9577
3077.8333,97.8847
3078.7974,97.8139
3079.7617,97.7463
3080.7258,97.6813
3081.6902,97.6178
3082.6543,97.5549
3083.6187,97.4924
3084.5828,97.4304
3085.5471,97.3685
3086.5112,97.3054
3087.4756,97.2387
3088.4397,97.1665
3089.4041,97.0883
3090.3682,97.0047
3091.3325,96.9173
3092.2966,96.8276
3093.2610,96.7362
3094.2251,96.6431
3095.1895,96.5484
3096.1536,96.4531
3097.1179,96.3592
3098.0820,96.2683
3099.0464,96.1812
3100.0105,96.0974
3100.9749,96.0153
3101.9390,95.9332
3102.9033,95.85
3103.8674,95.7658
3104.8318,95.6811
3105.7959,95.596
3106.7603,95.5102
3107.7244,95.422
3108.6887,95.3298
3109.6528,95.2318
3110.6172,95.1274
3111.5813,95.0173
3112.5457,94.9041
3113.5098,94.7916
3114.4741,94.6841
3115.4382,94.5851
3116.4026,94.496
3117.3667,94.4153
3118.3311,94.3393
3119.2952,94.2627
3120.2595,94.1807
3121.2236,94.0904
3122.1880,93.9918
3123.1521,93.8883
3124.1165,93.785
3125.0806,93.6866
3126.0449,93.595
3127.0090,93.5085
3127.9734,93.4221
3128.9375,93.3309
3129.9019,93.2326
3130.8660,93.1287
3131.8303,93.0236
3132.7944,92.9218
3133.7588,92.8255
3134.7229,92.7337
3135.6873,92.6434
3136.6514,92.5513
3137.6157,92.4558
3138.5798,92.3573
3139.5442,92.2571
3140.5083,92.1566
3141.4727,92.0566
3142.4368,91.9568
3143.4011,91.856
3144.3652,91.7527
3145.3296,91.6461
3146.2937,91.5369
3147.2581,91.4278
3148.2222,91.3221
3149.1865,91.2224
3150.1506,91.1282
3151.1150,91.036
3152.0791,90.9406
3153.0435,90.8379
3154.0076,90.7272
3154.9719,90.6112
3155.9360,90.4946
3156.9004,90.3816
3157.8645,90.2738
3158.8289,90.1704
3159.7930,90.0687
3160.7573,89.966
3161.7214,89.86
3162.6858,89.7502
3163.6499,89.6374
3164.6143,89.5241
3165.5784,89.4133
3166.5427,89.3081
3167.5068,89.2096
3168.4712,89.1167
3169.4353,89.0427
3170.3997,88.9477
3171.3638,88.844
3172.3281,88.7296
3173.2922,88.6061
3174.2566,88.4788
3175.2207,88.3542
3176.1851,88.2384
3177.1492,88.1338
3178.1135,88.0389
3179.0776,87.9486
3180.0420,87.8572
3181.0061,87.7606
3181.9705,87.6581
3182.9346,87.5518
3183.8989,87.445
3184.8630,87.34
3185.8274,87.2372
3186.7915,87.1353
3187.7559,87.0325
3188.7200,86.9282
3189.6843,86.8233
3190.6484,86.7196
3191.6128,86.6186
3192.5769,86.5198
3193.5413,86.4214
3194.5054,86.321
3195.4697,86.2176
3196.4338,86.1125
3197.3982,86.0084
3198.3623,85.9079
3199.3267,85.8116
3200.2908,85.7184
3201.2551,85.6258
3202.2192,85.5319
3203.1836,85.4361
3204.1477,85.3388
3205.1121,85.2412
3206.0762,85.1441
3207.0405,85.0488
3208.0046,84.9559
3208.9690,84.8653
3209.9331,84.7754
3210.8975,84.6836
3211.8616,84.5875
3212.8259,84.4872
3213.7900,84.3859
3214.7544,84.2885
3215.7185,84.1993
3216.6829,84.119
3217.6470,84.0446
3218.6113,83.9709
3219.5754,83.8941
3220.5398,83.8133
3221.5039,83.7306
3222.4683,83.6487
3223.4324,83.5683
3224.3967,83.4879
3225.3608,83.4048
3226.3252,83.3178
3227.2893,83.2284
3228.2537,83.141
3229.2178,83.0603
3230.1821,82.9894
3231.1462,82.9275
3232.1106,82.8704
3233.0747,82.8122
3234.0391,82.748
3235.0032,82.6758
3235.9675,82.5963
3236.9316,82.5127
3237.8960,82.4286
3238.8601,82.3468
3239.8245,82.2692
3240.7886,82.1964
3241.7529,82.1291
3242.7170,82.0675
3243.6814,82.012
3244.6455,81.9615
3245.6099,81.9138
3246.5740,81.8651
3247.5383,81.8115
3248.5024,81.7505
3249.4668,81.6818
3250.4309,81.6076
3251.3953,81.5321
3252.3594,81.4598
3253.3237,81.3946
3254.2878,81.3377
3255.2522,81.288
3256.2163,81.2423
3257.1807,81.1974
3258.1448,81.1505
3259.1091,81.1
3260.0732,81.046
3261.0376,80.9892
3262.0017,80.931
3262.9661,80.8721
3263.9302,80.8129
3264.8945,80.7525
3265.8586,80.6898
3266.8230,80.6241
3267.7871,80.5556
3268.7515,80.4865
3269.7156,80.4203
3270.6799,80.3605
3271.6440,80.3095
3272.6084,80.2674
3273.5725,80.2322
3274.5369,80.2002
3275.5010,80.1681
3276.4653,80.1338
3277.4294,80.0969
3278.3938,80.0581
3279.3579,80.0187
3280.3223,79.9795
3281.2864,79.9406
3282.2507,79.9012
3283.2148,79.8593
3284.1792,79.8129
3285.1433,79.7599
3286.1077,79.6999
3287.0718,79.6339
3288.0361,79.5648
3289.0002,79.496
3289.9646,79.4311
3290.9287,79.3731
3291.8931,79.3247
3292.8572,79.2885
3293.8215,79.2657
3294.7856,79.255
3295.7500,79.2511
3296.7141,79.2453
3297.6785,79.2283
3298.6426,79.1939
3299.6069,79.142
3300.5710,79.0785
3301.5354,79.0124
3302.4995,78.9518
3303.4639,78.9012
3304.4280,78.8618
3305.3923,78.8324
3306.3564,78.8116
3307.3208,78.7981
3308.2849,78.7897
3309.2493,78.7835
3310.2134,78.7757
3311.1777,78.7635
3312.1418,78.7458
3313.1062,78.723
3314.0703,78.6963
3315.0347,78.6662
3315.9988,78.633
3316.9631,78.5975
3317.9272,78.5617
3318.8916,78.529
3319.8557,78.5031
3320.8201,78.4863
3321.7842,78.4785
3322.7485,78.4768
3323.7126,78.4763
3324.6770,78.472
3325.6411,78.4608
3326.6055,78.4424
3327.5696,78.4192
3328.5339,78.3942
3329.4980,78.3693
3330.4624,78.3442
3331.4265,78.3175
3332.3909,78.2892
3333.3550,78.2622
3334.3193,78.2414
3335.2834,78.2311
3336.2478,78.2312
3337.2119,78.2366
3338.1763,78.2404
3339.1404,78.2376
3340.1047,78.2278
3341.0688,78.2144
3342.0332,78.2005
3342.9973,78.1866
3343.9617,78.1706
3344.9258,78.1508
3345.8901,78.1288
3346.8542,78.1103
3347.8186,78.1021
3348.7827,78.1078
3349.7471,78.1252
3350.7112,78.1471
3351.6755,78.1658
3352.6396,78.1762
3353.6040,78.1783
3354.5681,78.1755
3355.5325,78.1721
3356.4966,78.171
3357.4609,78.1724
3358.4250,78.1742
3359.3894,78.173
3360.3535,78.166
3361.3179,78.1521
3362.2820,78.1333
3363.2463,78.1149
3364.2104,78.104
3365.1748,78.107
3366.1389,78.1261
3367.1033,78.158
3368.0674,78.1954
3369.0317,78.2299
3369.9958,78.256
3370.9602,78.2728
3371.9243,78.2826
3372.8887,78.2894
3373.8528,78.2962
3374.8171,78.305
3375.7813,78.3175
3376.7456,78.3353
3377.7097,78.3597
3378.6741,78.3907
3379.6382,78.426
3380.6025,78.4623
3381.5667,78.4965
3382.5310,78.527
3383.4951,78.5537
3384.4595,78.5768
3385.4236,78.5963
3386.3879,78.6123
3387.3521,78.6263
3388.3164,78.6422
3389.2805,78.6648
3390.2449,78.6974
3391.2090,78.7392
3392.1733,78.7858
3393.1375,78.832
3394.1018,78.8753
3395.0659,78.9165
3396.0303,78.9585
3396.9944,79.002
3397.9587,79.0448
3398.9229,79.0832
3399.8872,79.1156
3400.8513,79.1444
3401.8157,79.1748
3402.7798,79.2114
3403.7441,79.2556
3404.7083,79.305
3405.6726,79.356
3406.6367,79.4059
3407.6011,79.4545
3408.5652,79.503
3409.5295,79.5523
3410.4937,79.6023
3411.4580,79.6523
3412.4221,79.7017
3413.3865,79.7502
3414.3506,79.7975
3415.3149,79.8439
3416.2791,79.8901
3417.2434,79.9389
3418.2075,79.994
3419.1719,80.0595
3420.1360,80.1359
3421.1003,80.2193
3422.0645,80.3023
3423.0288,80.3781
3423.9929,80.4441
3424.9573,80.5022
3425.9214,80.558
3426.8857,80.617
3427.8499,80.6823
3428.8142,80.7537
3429.7783,80.8285
3430.7427,80.904
3431.7068,80.9787
3432.6711,81.0536
3433.6353,81.1302
3434.5996,81.2093
3435.5637,81.2898
3436.5281,81.3692
3437.4922,81.4448
3438.4565,81.5152
3439.4207,81.5806
3440.3850,81.6425
3441.3491,81.7029
3442.3135,81.7644
3443.2776,81.8301
3444.2419,81.9039
3445.2061,81.9888
3446.1704,82.0847
3447.1345,82.1874
3448.0989,82.2891
3449.0630,82.3832
3450.0273,82.4676
3450.9915,82.5447
3451.9558,82.6192
3452.9199,82.6941
3453.8843,82.7698
3454.8484,82.8445
3455.8127,82.9167
3456.7769,82.9871
3457.7412,83.0585
3458.7053,83.1337
3459.6697,83.2137
3460.6338,83.2962
3461.5981,83.3773
3462.5623,83.4543
3463.5266,83.5283
3464.4907,83.604
3465.4551,83.6873
3466.4192,83.7817
3467.3835,83.8854
3468.3477,83.9924
3469.3120,84.0954
3470.2761,84.1905
3471.2405,84.2794
3472.2046,84.3672
3473.1689,84.4588
3474.1331,84.5548
3475.0974,84.6504
3476.0615,84.7389
3477.0259,84.817
3477.9900,84.8881
3478.9543,84.9608
3479.9185,85.0449
3480.8828,85.1451
3481.8469,85.2579
3482.8113,85.3741
3483.7754,85.4847
3484.7397,85.5866
3485.7039,85.683
3486.6682,85.7804
3487.6323,85.8838
3488.5967,85.9939
3489.5608,86.1063
3490.5251,86.2151
3491.4893,86.3171
3492.4536,86.4136
3493.4177,86.5098
3494.3821,86.6106
3495.3462,86.7165
3496.3105,86.8216
3497.2747,86.9174
3498.2390,86.9994
3499.2031,87.0722
3500.1675,87.1491
3501.1316,87.2463
3502.0959,87.3726
3503.0601,87.5214
3504.0244,87.674
3504.9885,87.813
3505.9529,87.9345
3506.9170,88.0472
3507.8813,88.1641
3508.8455,88.2925
3509.8098,88.4295
3510.7739,88.5647
3511.7383,88.6893
3512.7024,88.8023
3513.6667,88.9106
3514.6309,89.0221
3515.5952,89.1401
3516.5593,89.2618
3517.5237,89.3813
3518.4878,89.4937
3519.4521,89.5983
3520.4163,89.6974
3521.3806,89.7943
3522.3447,89.8917
3523.3091,89.9925
3524.2732,90.1009
3525.2375,90.2229
3526.2017,90.3638
3527.1660,90.5232
3528.1301,90.6917
3529.0945,90.8538
3530.0586,90.9956
3531.0229,91.1141
3531.9871,91.2182
3532.9514,91.3236
3533.9155,91.4451
3534.8799,91.5895
3535.8440,91.752
3536.8083,91.9172
3537.7725,92.0666
3538.7368,92.1876
3539.7009,92.2782
3540.6653,92.3472
3541.6294,92.4108
3542.5938,92.4891
3543.5579,92.6023
3544.5222,92.7601
3545.4863,92.9527
3546.4507,93.1524
3547.4148,93.3323
3548.3792,93.4838
3549.3433,93.6166
3550.3076,93.7478
3551.2717,93.8902
3552.2361,94.0454
3553.2002,94.2039
3554.1646,94.3533
3555.1287,94.4875
3556.0930,94.6095
3557.0571,94.7256
3558.0215,94.8385
3558.9856,94.9444
3559.9500,95.0354
3560.9141,95.1061
3561.8784,95.1584
3562.8425,95.203
3563.8069,95.2583
3564.7710,95.3527
3565.7354,95.5201
3566.6995,95.7671
3567.6638,96.0412
3568.6279,96.2677
3569.5923,96.4171
3570.5564,96.5109
3571.5208,96.5853
3572.4849,96.6638
3573.4492,96.7528
3574.4133,96.8474
3575.3777,96.9403
3576.3418,97.0274
3577.3062,97.1081
3578.2703,97.1825
3579.2346,97.2487
3580.1987,97.3039
3581.1631,97.3481
3582.1272,97.3871
3583.0916,97.4291
3584.0557,97.4811
3585.0200,97.5493
3585.9841,97.6415
3586.9485,97.7582
3587.9126,97.8744
3588.8770,97.953
3589.8411,97.9821
3590.8054,97.9821
3591.7695,97.982
3592.7339,98.0006
3593.6980,98.0421
3594.6624,98.0975
3595.6265,98.1516
3596.5908,98.1947
3597.5549,98.2324
3598.5193,98.2816
3599.4834,98.3558
3600.4478,98.4518
3601.4119,98.5499
3602.3762,98.6298
3603.3403,98.6854
3604.3047,98.7262
3605.2688,98.7684
3606.2332,98.8267
3607.1973,98.907
3608.1616,98.999
3609.1257,99.0785
3610.0901,99.1249
3611.0542,99.1353
3612.0186,99.1233
3612.9829,99.107
3613.9470,99.0988
3614.9114,99.1022
3615.8755,99.1156
3616.8398,99.1376
3617.8040,99.1704
3618.7683,99.2124
3619.7324,99.2456
3620.6968,99.2411
3621.6609,99.189
3622.6252,99.1126
3623.5894,99.0501
3624.5537,99.0274
3625.5178,99.046
3626.4822,99.0896
3627.4463,99.148
3628.4106,99.22
3629.3748,99.2781
3630.3391,99.2793
3631.3032,99.2259
3632.2676,99.1511
3633.2317,99.0956
3634.1960,99.0719
3635.1602,99.0633
3636.1245,99.0459
3637.0886,99.004
3638.0530,98.9356
3639.0171,98.8466
3639.9814,98.7436
3640.9456,98.6317
3641.9099,98.5159
3642.8740,98.4033
3643.8384,98.2982
3644.8025,98.1932
3645.7668,98.0637
3646.7310,97.8907
3647.6953,97.7234
3648.6594,97.6798
3649.6238,97.7649
3650.5879,97.8299
3651.5522,97.792
3652.5164,97.6817
3653.4807,97.5483
3654.4448,97.4121
3655.4092,97.2711
3656.3733,97.1227
3657.3376,96.9749
3658.3018,96.8433
3659.2661,96.7445
3660.2302,96.6885
3661.1946,96.6711
3662.1587,96.6753
3663.1230,96.6818
3664.0872,96.681
3665.0515,96.6741
3666.0156,96.6634
3666.9800,96.6443
3667.9441,96.6129
3668.9084,96.5778
3669.8726,96.5487
3670.8369,96.5144
3671.8010,96.4571
3672.7654,96.377
3673.7295,96.3036
3674.6938,96.3008
3675.6580,96.425
3676.6223,96.6382
3677.5864,96.832
3678.5508,96.9419
3679.5149,96.97
3680.4792,96.9406
3681.4434,96.8762
3682.4077,96.7986
3683.3718,96.7324
3684.3362,96.6974
3685.3003,96.6951
3686.2646,96.7041
3687.2288,96.6982
3688.1931,96.6834
3689.1572,96.705
3690.1216,96.7847
3691.0857,96.8918
3692.0500,96.9958
3693.0142,97.0946
3693.9785,97.1976
3694.9426,97.3102
3695.9070,97.4326
3696.8711,97.5644
3697.8354,97.7075
3698.7996,97.8643
3699.7639,98.0352
3700.7280,98.2136
3701.6924,98.382
3702.6565,98.517
3703.6208,98.6045
3704.5850,98.6512
3705.5493,98.6758
3706.5134,98.6933
3707.4778,98.7082
3708.4419,98.7273
3709.4063,98.7851
3710.3704,98.9358
3711.3347,99.1774
3712.2988,99.413
3713.2632,99.5478
3714.2273,99.569
3715.1917,99.518
3716.1558,99.4391
3717.1201,99.3572
3718.0842,99.2795
3719.0486,99.2053
3720.0127,99.1339
3720.9771,99.0672
3721.9412,99.0095
3722.9055,98.966
3723.8696,98.9411
3724.8340,98.9341
3725.7981,98.9368
3726.7625,98.9394
3727.7266,98.9388
3728.6909,98.9389
3729.6550,98.9414
3730.6194,98.9412
3731.5835,98.9488
3732.5479,98.932
3733.5120,98.9231
3734.4763,98.9762
3735.4404,99.0956
3736.4048,99.2102
3737.3689,99.2658
3738.3333,99.2848
3739.2974,99.3294
3740.2617,99.4454
3741.2258,99.6306
3742.1902,99.8285
3743.1543,99.9525
3744.1187,99.941
3745.0828,99.8019
3746.0471,99.6007
3747.0112,99.4139
3747.9756,99.2928
3748.9397,99.2616
3749.9041,99.33
3750.8682,99.4686
3751.8325,99.581
3752.7966,99.5877
3753.7610,99.5051
3754.7251,99.3998
3755.6895,99.3215
3756.6536,99.2875
3757.6179,99.2944
3758.5820,99.3296
3759.5464,99.3737
3760.5105,99.4085
3761.4749,99.4284
3762.4390,99.4394
3763.4033,99.448
3764.3674,99.4552
3765.3318,99.4589
3766.2959,99.4595
3767.2603,99.4623
3768.2244,99.4752
3769.1887,99.5014
3770.1528,99.5327
3771.1172,99.5521
3772.0813,99.547
3773.0457,99.5201
3774.0098,99.4851
3774.9741,99.4547
3775.9382,99.4332
3776.9026,99.4191
3777.8667,99.4125
3778.8311,99.4138
3779.7952,99.4166
3780.7595,99.4112
3781.7236,99.3952
3782.6880,99.376
3783.6521,99.3656
3784.6165,99.3726
3785.5806,99.3973
3786.5449,99.4312
3787.5090,99.4621
3788.4734,99.4826
3789.4375,99.4929
3790.4019,99.4982
3791.3660,99.501
3792.3303,99.4971
3793.2944,99.4771
3794.2588,99.436
3795.2229,99.3818
3796.1873,99.3342
3797.1514,99.311
3798.1157,99.3143
3799.0798,99.329
3800.0442,99.337
3801.0083,99.3319
3801.9727,99.3197
3802.9368,99.3131
3803.9011,99.329
3804.8652,99.3802
3805.8296,99.4603
3806.7937,99.539
3807.7581,99.5765
3808.7222,99.5554
3809.6865,99.5
3810.6506,99.4578
3811.6150,99.4613
3812.5791,99.5048
3813.5435,99.5481
3814.5076,99.547
3815.4719,99.486
3816.4360,99.3873
3817.4004,99.2899
3818.3645,99.2282
3819.3289,99.222
3820.2930,99.268
3821.2573,99.3312
3822.2214,99.3624
3823.1858,99.3424
3824.1499,99.2956
3825.1143,99.2615
3826.0784,99.2638
3827.0427,99.3008
3828.0068,99.3524
3828.9712,99.3943
3829.9353,99.4127
3830.8997,99.4095
3831.8638,99.3988
3832.8281,99.3949
3833.7922,99.4012
3834.7566,99.4048
3835.7207,99.3843
3836.6851,99.3288
3837.6492,99.255
3838.6135,99.1985
3839.5776,99.1852
3840.5420,99.217
3841.5061,99.281
3842.4705,99.3563
3843.4346,99.4161
3844.3989,99.4345
3845.3630,99.4025
3846.3274,99.3387
3847.2915,99.2839
3848.2559,99.2819
3849.2200,99.3572
3850.1843,99.5004
3851.1484,99.6739
3852.1128,99.8447
3853.0769,99.9892
3854.0413,100.033
3855.0054,99.9131
3855.9697,99.6904
3856.9338,99.4786
3857.8982,99.3498
3858.8623,99.3135
3859.8267,99.3335
3860.7908,99.3571
3861.7551,99.349
3862.7192,99.3154
3863.6836,99.2922
3864.6477,99.3073
3865.6121,99.3595
3866.5762,99.4268
3867.5405,99.4805
3868.5046,99.4988
3869.4690,99.4798
3870.4331,99.4448
3871.3975,99.4209
3872.3616,99.4197
3873.3259,99.4354
3874.2900,99.4597
3875.2544,99.4895
3876.2185,99.5231
3877.1829,99.5536
3878.1470,99.5689
3879.1113,99.5602
3880.0754,99.5328
3881.0398,99.506
3882.0039,99.5009
3882.9683,99.5278
3883.9324,99.5801
3884.8967,99.6355
3885.8608,99.6678
3886.8252,99.6635
3887.7893,99.6293
3888.7537,99.5827
3889.7178,99.5395
3890.6821,99.5105
3891.6462,99.5002
3892.6106,99.5021
3893.5747,99.5057
3894.5391,99.5111
3895.5032,99.5258
3896.4675,99.549
3897.4316,99.567
3898.3960,99.5667
3899.3601,99.5496
3900.3245,99.5306
3901.2886,99.5232
3902.2529,99.5316
3903.2170,99.551
3904.1814,99.5704
3905.1455,99.5792
3906.1099,99.5761
3907.0740,99.5703
3908.0383,99.5711
3909.0024,99.5798
3909.9668,99.5893
3910.9309,99.5918
3911.8953,99.5853
3912.8594,99.5753
3913.8237,99.5704
3914.7878,99.5766
3915.7522,99.5947
3916.7163,99.6192
3917.6807,99.6383
3918.6448,99.6392
3919.6091,99.6171
3920.5732,99.5799
3921.5376,99.5422
3922.5017,99.5161
3923.4661,99.5059
3924.4302,99.5066
3925.3945,99.507
3926.3586,99.4982
3927.3230,99.4796
3928.2871,99.4585
3929.2515,99.444
3930.2156,99.4451
3931.1799,99.4664
3932.1440,99.5037
3933.1084,99.5439
3934.0725,99.5743
3935.0369,99.591
3936.0010,99.5966
3936.9653,99.5949
3937.9294,99.5865
3938.8938,99.5704
3939.8579,99.5473
3940.8223,99.5233
3941.7864,99.5077
3942.7507,99.5067
3943.7148,99.518
3944.6792,99.5331
3945.6433,99.5429
3946.6077,99.5422
3947.5718,99.5319
3948.5361,99.5186
3949.5002,99.5106
3950.4646,99.5121
3951.4287,99.5214
3952.3931,99.5335
3953.3572,99.5435
3954.3215,99.5478
3955.2856,99.5454
3956.2500,99.5379
3957.2141,99.5284
3958.1785,99.5201
3959.1426,99.5149
3960.1069,99.5136
3961.0710,99.5163
3962.0354,99.5232
3962.9995,99.534
3963.9639,99.548
3964.9280,99.5636
3965.8923,99.5785
3966.8564,99.5892
3967.8208,99.5919
3968.7849,99.5846
3969.7493,99.5684
3970.7134,99.5483
3971.6777,99.5313
3972.6418,99.5231
3973.6062,99.5253
3974.5703,99.5346
3975.5347,99.5447
3976.4988,99.5508
3977.4631,99.5517
3978.4272,99.5498
3979.3916,99.5482
3980.3557,99.5478
3981.3201,99.547
3982.2842,99.543
3983.2485,99.5347
3984.2126,99.524
3985.1770,99.5149
3986.1411,99.5103
3987.1055,99.5098
3988.0696,99.5096
3989.0339,99.5044
3989.9980,99.4912
3990.9624,99.4723
3991.9265,99.4547
3992.8909,99.4465
3993.8550,99.4527
3994.8193,99.4711
3995.7834,99.4931
3996.7478,99.5078
3997.7119,99.5085
3998.6763,99.496
3999.6404,99.4781
4000.6047,99.3472

##### Extended Information
[Comments]
Sample name
Comment
User
Division
Company,HANKYONG

[Detailed Information]
Creation date,4/24/2024 10:38 AM

Data array type,Linear data array
Horizontal axis,Wavenumber [cm-1]
Vertical axis,%T
Start,649.893 cm-1
End,4000.6 cm-1
Data interval,0.964233 cm-1
Data points,3476    

[Measurement Information]
Model Name,FT/IR-4700typeA
Serial Number,D056761788

Accessory,ATR PRO ONE
Accessory S/N,C174761809
Incident angle,45 deg

Measurement Date,4/24/2024 10:37 AM

Light Source,Standard
Detector,TGS
Accumulation,32
Resolution,4 cm-1
Zero Filling,On
Apodization,Cosine
Gain,Auto (4)
Aperture,Auto (7.1 mm)
Scanning Speed,Auto (2 mm/sec)
Filter,Auto (30000 Hz)

