TITLE,
DATA TYPE,INFRARED SPECTRUM
ORIGIN,JASCO
OWNER,
DATE,24/04/24
TIME,11:16:40
SPECTROMETER/DATA SYSTEM,
LOCALE,1033
RESOLUTION,
DELTAX,0.964233
XUNITS,1/CM
YUNITS,TRANSMITTANCE
FIRSTX,  649.8934
LASTX, 4000.6047
NPOINTS,    3476
FIRSTY,   100.88675
MAXY,   101.36865
MINY,    50.71766
XYDATA
649.8934,100.887
650.8576,100.768
651.8218,100.666
652.7861,100.593
653.7503,100.542
654.7145,100.497
655.6788,100.435
656.6430,100.33
657.6072,100.169
658.5715,99.969
659.5357,99.775
660.4999,99.6337
661.4642,99.5601
662.4284,99.5191
663.3926,99.4413
664.3569,99.2482
665.3211,98.8671
666.2853,98.2541
667.2496,97.4798
668.2138,96.8379
669.1780,96.6631
670.1423,96.9204
671.1065,97.3167
672.0707,97.6506
673.0350,97.862
673.9992,97.9562
674.9634,97.9599
675.9277,97.9118
676.8919,97.8592
677.8561,97.85
678.8204,97.9197
679.7846,98.0829
680.7488,98.3278
681.7131,98.6176
682.6773,98.9049
683.6415,99.1544
684.6058,99.3597
685.5700,99.5394
686.5342,99.7157
687.4985,99.891
688.4627,100.037
689.4269,100.109
690.3912,100.07
691.3554,99.9352
692.3196,99.7975
693.2839,99.8004
694.2481,100.027
695.2123,100.418
696.1766,100.835
697.1408,101.159
698.1050,101.335
699.0693,101.369
700.0335,101.307
700.9977,101.21
701.9620,101.122
702.9262,101.063
703.8904,101.038
704.8547,101.044
705.8189,101.079
706.7831,101.133
707.7474,101.187
708.7116,101.217
709.6758,101.198
710.6401,101.124
711.6043,101.004
712.5685,100.856
713.5328,100.696
714.4970,100.528
715.4612,100.584
716.4255,100.362
717.3897,100.133
718.3539,99.9309
719.3182,99.7999
720.2824,99.7724
721.2466,99.849
722.2109,99.9955
723.1751,100.16
724.1393,100.295
725.1036,100.374
726.0678,100.395
727.0320,100.373
727.9963,100.334
728.9605,100.303
729.9247,100.301
730.8890,100.33
731.8532,100.381
732.8174,100.434
733.7817,100.46
734.7459,100.437
735.7101,100.348
736.6744,100.19
737.6386,99.9722
738.6028,99.7148
739.5671,99.4415
740.5313,99.1752
741.4955,98.9335
742.4598,98.7257
743.4240,98.5529
744.3882,98.41
745.3525,98.2894
746.3167,98.1841
747.2809,98.09
748.2452,98.0059
749.2094,97.9322
750.1736,97.8692
751.1379,97.8156
752.1021,97.7686
753.0663,97.7252
754.0306,97.6833
754.9948,97.6414
755.9590,97.5974
756.9233,97.5473
757.8875,97.4853
758.8517,97.4067
759.8160,97.3116
760.7802,97.2068
761.7444,97.103
762.7087,97.0098
763.6729,96.9298
764.6371,96.8582
765.6014,96.7886
766.5656,96.7206
767.5298,96.6637
768.4941,96.6331
769.4583,96.6398
770.4225,96.6808
771.3868,96.7375
772.3510,96.7824
773.3152,96.7916
774.2795,96.7546
775.2437,96.6755
776.2079,96.5676
777.1722,96.4439
778.1364,96.312
779.1006,96.1721
780.0649,96.0216
781.0291,95.8587
781.9933,95.6864
782.9576,95.5127
783.9218,95.3488
784.8860,95.204
785.8503,95.0818
786.8145,94.9769
787.7787,94.8769
788.7430,94.7685
789.7072,94.6438
790.6714,94.5047
791.6357,94.3603
792.5999,94.2205
793.5641,94.0893
794.5284,93.9616
795.4926,93.8265
796.4568,93.6749
797.4211,93.505
798.3853,93.3239
799.3495,93.1434
800.3138,92.9734
801.2780,92.8171
802.2422,92.6686
803.2065,92.515
804.1707,92.3411
805.1349,92.1331
806.0992,91.8828
807.0634,91.5894
808.0276,91.2597
808.9919,90.9061
809.9561,90.5437
810.9203,90.1863
811.8846,89.8444
812.8488,89.5241
813.8130,89.2288
814.7773,88.9609
815.7415,88.7228
816.7057,88.5159
817.6700,88.3395
818.6342,88.1895
819.5984,88.0601
820.5627,87.9458
821.5269,87.8438
822.4911,87.7546
823.4554,87.681
824.4196,87.6264
825.3839,87.5924
826.3481,87.5777
827.3123,87.5771
828.2766,87.5804
829.2408,87.572
830.2050,87.5325
831.1693,87.4433
832.1335,87.2916
833.0977,87.0747
834.0620,86.8012
835.0262,86.4867
835.9904,86.1484
836.9547,85.7997
837.9189,85.4467
838.8831,85.09
839.8474,84.7276
840.8116,84.3587
841.7758,83.987
842.7401,83.6213
843.7043,83.274
844.6685,82.9575
845.6328,82.6809
846.5970,82.447
847.5612,82.2527
848.5255,82.0907
849.4897,81.9528
850.4539,81.8336
851.4182,81.7306
852.3824,81.6437
853.3466,81.573
854.3109,81.5174
855.2751,81.4734
856.2393,81.4367
857.2036,81.4034
858.1678,81.3721
859.1320,81.3444
860.0963,81.3247
861.0605,81.3192
862.0247,81.3341
862.9890,81.3742
863.9532,81.4416
864.9174,81.5358
865.8817,81.653
866.8459,81.7875
867.8101,81.9329
868.7744,82.0846
869.7386,82.2399
870.7028,82.3969
871.6671,82.5506
872.6313,82.6899
873.5955,82.7989
874.5598,82.8625
875.5240,82.8753
876.4882,82.8479
877.4525,82.8051
878.4167,82.7759
879.3809,82.781
880.3452,82.8248
881.3094,82.8963
882.2736,82.9784
883.2379,83.058
884.2021,83.1296
885.1663,83.1933
886.1306,83.2484
887.0948,83.2913
888.0590,83.3187
889.0233,83.3341
889.9875,83.3504
890.9517,83.3865
891.9160,83.4583
892.8802,83.5703
893.8444,83.7136
894.8087,83.87
895.7729,84.0208
896.7371,84.153
897.7014,84.2621
898.6656,84.35
899.6298,84.4213
900.5941,84.4797
901.5583,84.5273
902.5225,84.5642
903.4868,84.5903
904.4510,84.6059
905.4152,84.6126
906.3795,84.6112
907.3437,84.6016
908.3079,84.5818
909.2722,84.5506
910.2364,84.5102
911.2006,84.4691
912.1649,84.4408
913.1291,84.4394
914.0933,84.4745
915.0576,84.548
916.0218,84.6554
916.9860,84.7897
917.9503,84.946
918.9145,85.1232
919.8787,85.3239
920.8430,85.552
921.8072,85.8108
922.7714,86.1025
923.7357,86.4271
924.6999,86.7825
925.6641,87.1642
926.6284,87.5687
927.5926,87.996
928.5568,88.4526
929.5211,88.9513
930.4853,89.5074
931.4495,90.1333
932.4138,90.8351
933.3780,91.6114
934.3422,92.4539
935.3065,93.3481
936.2707,94.2716
937.2349,95.1935
938.1992,96.0761
939.1634,96.8817
940.1276,97.581
941.0919,98.1602
942.0561,98.6215
943.0203,98.9772
943.9846,99.2415
944.9488,99.425
945.9130,99.5337
946.8773,99.5731
947.8415,99.5517
948.8057,99.5075
949.7700,99.5003
950.7342,99.4682
951.6984,99.4154
952.6627,99.3401
953.6269,99.2378
954.5911,99.1032
955.5554,98.9334
956.5196,98.7271
957.4838,98.4847
958.4481,98.2068
959.4123,97.8938
960.3765,97.5461
961.3408,97.1647
962.3050,96.7526
963.2692,96.3158
964.2335,95.8627
965.1977,95.4039
966.1619,94.9499
967.1262,94.5098
968.0904,94.0901
969.0546,93.6948
970.0189,93.3271
970.9831,92.9894
971.9473,92.6848
972.9116,92.4154
973.8758,92.1819
974.8400,91.9811
975.8043,91.8049
976.7685,91.6405
977.7327,91.4718
978.6970,91.283
979.6612,91.0613
980.6254,90.7983
981.5897,90.49
982.5539,90.1347
983.5181,89.7326
984.4824,89.2864
985.4466,88.8035
986.4108,88.2976
987.3751,87.7871
988.3393,87.2927
989.3035,86.8326
990.2678,86.4209
991.2320,86.0659
992.1962,85.7717
993.1605,85.5381
994.1247,85.3607
995.0889,85.2317
996.0532,85.1405
997.0174,85.0758
997.9816,85.0269
998.9459,84.9839
999.9101,84.9362
1000.8743,84.8701
1001.8386,84.768
1002.8028,84.6093
1003.7670,84.3725
1004.7313,84.0387
1005.6955,83.5939
1006.6597,83.0307
1007.6240,82.3477
1008.5882,81.5473
1009.5524,80.6342
1010.5167,79.6136
1011.4809,78.4917
1012.4451,77.277
1013.4094,75.9803
1014.3736,74.6149
1015.3378,73.1944
1016.3021,71.7331
1017.2663,70.2464
1018.2305,68.7513
1019.1948,67.2634
1020.1590,65.7903
1021.1232,64.3265
1022.0875,62.8562
1023.0517,61.3667
1024.0160,59.8663
1024.9802,58.3948
1025.9445,57.0174
1026.9087,55.8003
1027.8729,54.782
1028.8372,53.9578
1029.8014,53.2854
1030.7656,52.7098
1031.7299,52.1905
1032.6941,51.7175
1033.6583,51.3082
1034.6226,50.992
1035.5868,50.7925
1036.5510,50.7177
1037.5153,50.758
1038.4795,50.8917
1039.4437,51.0905
1040.4080,51.3268
1041.3722,51.5799
1042.3364,51.8411
1043.3007,52.1164
1044.2649,52.4227
1045.2291,52.7809
1046.1934,53.2078
1047.1576,53.7128
1048.1218,54.2982
1049.0861,54.9625
1050.0503,55.7017
1051.0145,56.5063
1051.9788,57.3598
1052.9430,58.2403
1053.9072,59.1306
1054.8715,60.0283
1055.8357,60.9508
1056.7999,61.924
1057.7642,62.9592
1058.7284,64.0289
1059.6926,65.0601
1060.6569,65.9542
1061.6211,66.6294
1062.5853,67.064
1063.5496,67.3147
1064.5138,67.495
1065.4780,67.7242
1066.4423,68.0698
1067.4065,68.5182
1068.3707,68.9851
1069.3350,69.361
1070.2992,69.562
1071.2634,69.5614
1072.2277,69.3877
1073.1919,69.0985
1074.1561,68.7502
1075.1204,68.3785
1076.0846,67.9984
1077.0488,67.6135
1078.0131,67.2271
1078.9773,66.846
1079.9415,66.4792
1080.9058,66.1335
1081.8700,65.8115
1082.8342,65.5132
1083.7985,65.2384
1084.7627,64.9913
1085.7269,64.7828
1086.6912,64.6307
1087.6554,64.5546
1088.6196,64.5673
1089.5839,64.6644
1090.5481,64.8205
1091.5123,64.994
1092.4766,65.1406
1093.4408,65.2296
1094.4050,65.2537
1095.3693,65.2277
1096.3335,65.1779
1097.2977,65.1279
1098.2620,65.09
1099.2262,65.0642
1100.1904,65.0442
1101.1547,65.0242
1102.1189,65.0035
1103.0831,64.9866
1104.0474,64.9811
1105.0116,64.9961
1105.9758,65.042
1106.9401,65.1308
1107.9043,65.2772
1108.8685,65.4975
1109.8328,65.8082
1110.7970,66.224
1111.7612,66.757
1112.7255,67.4164
1113.6897,68.2077
1114.6539,69.1328
1115.6182,70.1892
1116.5824,71.3698
1117.5466,72.6639
1118.5109,74.0593
1119.4751,75.5441
1120.4393,77.1072
1121.4036,78.7382
1122.3678,80.4245
1123.3320,82.1502
1124.2963,83.8951
1125.2605,85.6357
1126.2247,87.3476
1127.1890,89.007
1128.1532,90.5922
1129.1174,92.0849
1130.0817,93.4701
1131.0459,94.7369
1132.0101,95.8776
1132.9744,96.8876
1133.9386,97.7637
1134.9028,98.5039
1135.8671,99.1076
1136.8313,99.5767
1137.7955,99.9166
1138.7598,100.12
1139.7240,100.161
1140.6882,100.099
1141.6525,99.9423
1142.6167,99.6973
1143.5809,99.3722
1144.5452,98.9801
1145.5094,98.5394
1146.4736,98.0725
1147.4379,97.6024
1148.4021,97.1499
1149.3663,96.732
1150.3306,96.3619
1151.2948,96.05
1152.2590,95.8024
1153.2233,95.6199
1154.1875,95.4956
1155.1517,95.4147
1156.1160,95.3567
1157.0802,95.2997
1158.0444,95.2247
1159.0087,95.1184
1159.9729,94.9734
1160.9371,94.7862
1161.9014,94.5553
1162.8656,94.28
1163.8298,93.9614
1164.7941,93.6027
1165.7583,93.2101
1166.7225,92.7916
1167.6868,92.3554
1168.6510,91.9071
1169.6152,91.4493
1170.5795,90.981
1171.5437,90.4999
1172.5079,90.0037
1173.4722,89.4918
1174.4364,88.9648
1175.4006,88.4233
1176.3649,87.8672
1177.3291,87.2947
1178.2933,86.7038
1179.2576,86.0936
1180.2218,85.4661
1181.1860,84.8266
1182.1503,84.1832
1183.1145,83.545
1184.0787,82.9203
1185.0430,82.3143
1186.0072,81.7285
1186.9714,81.16
1187.9357,80.6035
1188.8999,80.0532
1189.8641,79.5056
1190.8284,78.9602
1191.7926,78.4198
1192.7568,77.8881
1193.7211,77.3686
1194.6853,76.8637
1195.6495,76.3739
1196.6138,75.8988
1197.5780,75.4367
1198.5422,74.985
1199.5065,74.5732
1200.4707,74.1321
1201.4349,73.6981
1202.3992,73.2753
1203.3634,72.8695
1204.3276,72.4875
1205.2919,72.1347
1206.2561,71.8147
1207.2203,71.5289
1208.1846,71.2775
1209.1488,71.0608
1210.1130,70.8795
1211.0773,70.7352
1212.0415,70.6296
1213.0057,70.5639
1213.9700,70.5381
1214.9342,70.5515
1215.8984,70.6021
1216.8627,70.688
1217.8269,70.8069
1218.7911,70.9558
1219.7554,71.1304
1220.7196,71.3251
1221.6838,71.5328
1222.6481,71.7453
1223.6123,71.9544
1224.5765,72.1526
1225.5408,72.3336
1226.5050,72.4925
1227.4692,72.6252
1228.4335,72.727
1229.3977,72.794
1230.3619,72.8256
1231.3262,72.8296
1232.2904,72.8245
1233.2546,72.8371
1234.2189,72.8942
1235.1831,73.0115
1236.1473,73.1891
1237.1116,73.4146
1238.0758,73.6758
1239.0400,73.9714
1240.0043,74.313
1240.9685,74.7133
1241.9327,75.1694
1242.8970,75.6519
1243.8612,76.1104
1244.8254,76.4941
1245.7897,76.7747
1246.7539,76.9573
1247.7181,77.0731
1248.6824,77.1595
1249.6466,77.2415
1250.6108,77.3234
1251.5751,77.3937
1252.5393,77.4358
1253.5035,77.4386
1254.4678,77.3989
1255.4320,77.3206
1256.3962,77.2106
1257.3605,77.0772
1258.3247,76.9304
1259.2889,76.781
1260.2532,76.6395
1261.2174,76.5137
1262.1816,76.4072
1263.1459,76.3205
1264.1101,76.2529
1265.0743,76.2037
1266.0386,76.1733
1267.0028,76.1622
1267.9670,76.1718
1268.9313,76.2046
1269.8955,76.2636
1270.8597,76.352
1271.8240,76.4716
1272.7882,76.6222
1273.7524,76.8019
1274.7167,77.0085
1275.6809,77.2404
1276.6451,77.4959
1277.6094,77.773
1278.5736,78.0676
1279.5378,78.3744
1280.5021,78.687
1281.4663,78.9996
1282.4305,79.3076
1283.3948,79.6077
1284.3590,79.8982
1285.3232,80.1792
1286.2875,80.4524
1287.2517,80.7206
1288.2159,80.9862
1289.1802,81.2496
1290.1444,81.5094
1291.1086,81.7629
1292.0729,82.0081
1293.0371,82.2452
1294.0013,82.4765
1294.9656,82.7049
1295.9298,82.932
1296.8940,83.1575
1297.8583,83.3784
1298.8225,83.5898
1299.7867,83.7858
1300.7510,83.9602
1301.7152,84.1075
1302.6794,84.2251
1303.6437,84.3141
1304.6079,84.3783
1305.5721,84.4221
1306.5364,84.4479
1307.5006,84.4549
1308.4648,84.4405
1309.4291,84.4032
1310.3933,84.3455
1311.3575,84.2739
1312.3218,84.1967
1313.2860,84.1201
1314.2502,84.046
1315.2145,83.9734
1316.1787,83.9013
1317.1429,83.8313
1318.1072,83.767
1319.0714,83.7115
1320.0356,83.6637
1320.9999,83.6185
1321.9641,83.5705
1322.9283,83.5173
1323.8926,83.4614
1324.8568,83.4088
1325.8210,83.3675
1326.7853,83.3452
1327.7495,83.3491
1328.7137,83.3852
1329.6780,83.4578
1330.6422,83.5673
1331.6064,83.7068
1332.5707,83.8615
1333.5349,84.0122
1334.4991,84.1435
1335.4634,84.2513
1336.4276,84.3493
1337.3918,84.4684
1338.3561,84.644
1339.3203,84.89
1340.2845,85.179
1341.2488,85.4582
1342.2130,85.6846
1343.1772,85.8436
1344.1415,85.9428
1345.1057,85.9978
1346.0699,86.024
1347.0342,86.0331
1347.9984,86.032
1348.9626,86.022
1349.9269,86.0004
1350.8911,85.963
1351.8553,85.9087
1352.8196,85.8416
1353.7838,85.7704
1354.7480,85.7038
1355.7123,85.6444
1356.6765,85.5859
1357.6407,85.5176
1358.6050,85.4323
1359.5692,85.3332
1360.5334,85.2391
1361.4977,85.1807
1362.4619,85.1794
1363.4261,85.2241
1364.3904,85.2793
1365.3546,85.3161
1366.3188,85.3283
1367.2831,85.3241
1368.2473,85.3118
1369.2115,85.2926
1370.1758,85.2612
1371.1400,85.2135
1372.1042,85.1547
1373.0685,85.1031
1374.0327,85.0818
1374.9969,85.1
1375.9612,85.1423
1376.9254,85.1841
1377.8896,85.214
1378.8539,85.2381
1379.8181,85.27
1380.7823,85.3187
1381.7466,85.3841
1382.7108,85.463
1383.6750,85.5595
1384.6393,85.6881
1385.6035,85.8653
1386.5677,86.0837
1387.5320,86.2882
1388.4962,86.3934
1389.4604,86.3443
1390.4247,86.1483
1391.3889,85.8581
1392.3531,85.5467
1393.3174,85.2971
1394.2816,85.1854
1395.2458,85.2406
1396.2101,85.4092
1397.1743,85.5799
1398.1385,85.6547
1399.1028,85.5975
1400.0670,85.427
1401.0313,85.1841
1401.9955,84.9062
1402.9597,84.62
1403.9240,84.3457
1404.8882,84.1008
1405.8524,83.8948
1406.8167,83.7235
1407.7809,83.5735
1408.7451,83.4339
1409.7094,83.2999
1410.6736,83.169
1411.6378,83.0364
1412.6021,82.8944
1413.5663,82.7376
1414.5305,82.5642
1415.4948,82.3709
1416.4590,82.1521
1417.4232,81.91
1418.3875,81.6636
1419.3517,81.4243
1420.3159,81.1767
1421.2802,80.9059
1422.2444,80.6236
1423.2086,80.3567
1424.1729,80.1274
1425.1371,79.9451
1426.1013,79.8094
1427.0656,79.7209
1428.0298,79.687
1428.9940,79.7184
1429.9583,79.8148
1430.9225,79.9566
1431.8867,80.1182
1432.8510,80.2885
1433.8152,80.4714
1434.7794,80.6716
1435.7437,80.8768
1436.7079,81.0405
1437.6721,81.0911
1438.6364,80.9878
1439.6006,80.7528
1440.5648,80.4375
1441.5291,80.0802
1442.4933,79.6953
1443.4575,79.2813
1444.4218,78.833
1445.3860,78.3491
1446.3502,77.8378
1447.3145,77.3197
1448.2787,76.8237
1449.2429,76.3728
1450.2072,75.9764
1451.1714,75.6371
1452.1356,75.3573
1453.0999,75.1334
1454.0641,74.9438
1455.0283,74.759
1455.9926,74.6006
1456.9568,74.5768
1457.9210,74.6943
1458.8853,74.7732
1459.8495,74.7259
1460.8137,74.6246
1461.7780,74.5781
1462.7422,74.6852
1463.7064,75.0323
1464.6707,75.6503
1465.6349,76.4426
1466.5991,77.2372
1467.5634,77.9389
1468.5276,78.5741
1469.4918,79.2262
1470.4561,79.9826
1471.4203,80.9183
1472.3845,82.0536
1473.3488,83.257
1474.3130,84.2775
1475.2772,84.9679
1476.2415,85.3609
1477.2057,85.5538
1478.1699,85.6267
1479.1342,85.6361
1480.0984,85.6295
1481.0626,85.6468
1482.0269,85.709
1482.9911,85.8088
1483.9553,85.9187
1484.9196,86.0062
1485.8838,86.0448
1486.8480,86.0256
1487.8123,85.9806
1488.7765,85.9842
1489.7407,86.07
1490.7050,86.1653
1491.6692,86.1848
1492.6334,86.115
1493.5977,85.9816
1494.5619,85.8001
1495.5261,85.5701
1496.4904,85.303
1497.4546,85.0338
1498.4188,84.7792
1499.3831,84.5183
1500.3473,84.2449
1501.3115,83.9923
1502.2758,83.7966
1503.2400,83.6483
1504.2042,83.454
1505.1685,83.0307
1506.1327,82.2487
1507.0969,81.3448
1508.0612,80.7162
1509.0254,80.3167
1509.9896,79.9386
1510.9539,79.5285
1511.9181,79.1208
1512.8823,78.7764
1513.8466,78.5778
1514.8108,78.6213
1515.7750,78.9717
1516.7393,79.6203
1517.7035,80.5165
1518.6677,81.6581
1519.6320,83.1198
1520.5962,84.9355
1521.5604,86.9365
1522.5247,88.8057
1523.4889,90.3492
1524.4531,91.6257
1525.4174,92.8034
1526.3816,93.9633
1527.3458,95.0464
1528.3101,95.9505
1529.2743,96.6405
1530.2385,97.169
1531.2028,97.6329
1532.1670,98.117
1533.1312,98.6362
1534.0955,99.1193
1535.0597,99.4901
1536.0239,99.7462
1536.9882,99.9186
1537.9524,99.987
1538.9166,99.872
1539.8809,99.6041
1540.8451,99.496
1541.8093,99.7468
1542.7736,100.131
1543.7378,100.441
1544.7020,100.645
1545.6663,100.757
1546.6305,100.789
1547.5947,100.76
1548.5590,100.694
1549.5232,100.61
1550.4874,100.537
1551.4517,100.444
1552.4159,100.329
1553.3801,100.216
1554.3444,100.139
1555.3086,100.11
1556.2728,100.093
1557.2371,100.05
1558.2013,100.072
1559.1655,100.21
1560.1298,100.185
1561.0940,99.8537
1562.0582,99.3727
1563.0225,98.916
1563.9867,98.5625
1564.9509,98.3125
1565.9152,98.1209
1566.8794,97.9244
1567.8436,97.6725
1568.8079,97.357
1569.7721,97.0103
1570.7363,96.6705
1571.7006,96.3596
1572.6648,96.0743
1573.6290,95.7739
1574.5933,95.3911
1575.5575,94.8982
1576.5217,94.3661
1577.4860,93.884
1578.4502,93.4542
1579.4144,93.0379
1580.3787,92.6116
1581.3429,92.1631
1582.3071,91.6838
1583.2714,91.1759
1584.2356,90.653
1585.1998,90.1282
1586.1641,89.606
1587.1283,89.0865
1588.0925,88.5726
1589.0568,88.0721
1590.0210,87.5922
1590.9852,87.1347
1591.9495,86.6983
1592.9137,86.2855
1593.8779,85.9053
1594.8422,85.5685
1595.8064,85.2777
1596.7706,85.0243
1597.7349,84.7944
1598.6991,84.5777
1599.6633,84.3731
1600.6276,84.188
1601.5918,84.0324
1602.5560,83.9122
1603.5203,83.8232
1604.4845,83.7536
1605.4487,83.6939
1606.4130,83.6464
1607.3772,83.6294
1608.3414,83.6673
1609.3057,83.7694
1610.2699,83.9185
1611.2341,84.0891
1612.1984,84.2762
1613.1626,84.5055
1614.1268,84.8297
1615.0911,85.319
1616.0553,86.0007
1617.0195,86.7566
1617.9838,87.3795
1618.9480,87.7896
1619.9122,88.0748
1620.8765,88.3666
1621.8407,88.7491
1622.8049,89.2285
1623.7692,89.7394
1624.7334,90.1974
1625.6976,90.5692
1626.6619,90.8839
1627.6261,91.1787
1628.5903,91.4568
1629.5546,91.698
1630.5188,91.8973
1631.4830,92.0741
1632.4473,92.2432
1633.4115,92.3883
1634.3757,92.4863
1635.3400,92.575
1636.3042,92.7144
1637.2684,92.8542
1638.2327,92.9119
1639.1969,92.8963
1640.1611,92.8651
1641.1254,92.8613
1642.0896,92.8961
1643.0538,92.9448
1644.0181,92.9479
1644.9823,92.8441
1645.9465,92.6523
1646.9108,92.4908
1647.8750,92.4494
1648.8392,92.5336
1649.8035,92.7267
1650.7677,92.9828
1651.7319,93.2023
1652.6962,93.3113
1653.6604,93.3242
1654.6246,93.1809
1655.5889,92.8427
1656.5531,92.4387
1657.5173,92.1095
1658.4816,91.9055
1659.4458,91.7981
1660.4100,91.7244
1661.3743,91.6378
1662.3385,91.531
1663.3027,91.4139
1664.2670,91.2917
1665.2312,91.1677
1666.1954,91.038
1667.1597,90.8811
1668.1239,90.6773
1669.0881,90.4523
1670.0524,90.2734
1671.0166,90.1774
1671.9808,90.1455
1672.9451,90.1461
1673.9093,90.1484
1674.8735,90.1092
1675.8378,89.9803
1676.8020,89.7429
1677.7662,89.4364
1678.7305,89.1412
1679.6947,88.9267
1680.6589,88.8077
1681.6232,88.7342
1682.5874,88.6329
1683.5516,88.4857
1684.5159,88.3114
1685.4801,88.0716
1686.4443,87.7393
1687.4086,87.3619
1688.3728,87.0062
1689.3370,86.7132
1690.3013,86.4939
1691.2655,86.3348
1692.2297,86.2001
1693.1940,86.0356
1694.1582,85.7847
1695.1224,85.4251
1696.0867,85.0114
1697.0509,84.6721
1698.0151,84.5179
1698.9794,84.52
1699.9436,84.5141
1700.9078,84.3562
1701.8721,84.0413
1702.8363,83.6715
1703.8005,83.3626
1704.7648,83.1862
1705.7290,83.1523
1706.6932,83.215
1707.6575,83.3044
1708.6217,83.3726
1709.5859,83.416
1710.5502,83.4571
1711.5144,83.5165
1712.4786,83.599
1713.4429,83.6999
1714.4071,83.8336
1715.3713,84.0736
1716.3356,84.5353
1717.2998,85.1982
1718.2640,85.8152
1719.2283,86.1887
1720.1925,86.3548
1721.1567,86.4572
1722.1210,86.6085
1723.0852,86.848
1724.0494,87.1537
1725.0137,87.4734
1725.9779,87.7607
1726.9421,87.9988
1727.9064,88.2032
1728.8706,88.4066
1729.8348,88.6435
1730.7991,88.9444
1731.7633,89.3387
1732.7275,89.8427
1733.6918,90.3941
1734.6560,90.8335
1735.6202,91.0583
1736.5845,91.1298
1737.5487,91.1825
1738.5129,91.3122
1739.4772,91.5391
1740.4414,91.8204
1741.4056,92.0882
1742.3699,92.2959
1743.3341,92.4438
1744.2983,92.5643
1745.2626,92.6908
1746.2268,92.8456
1747.1910,93.0506
1748.1553,93.3408
1749.1195,93.7421
1750.0837,94.2112
1751.0480,94.6315
1752.0122,94.9125
1752.9764,95.0588
1753.9407,95.1357
1754.9049,95.2077
1755.8691,95.3075
1756.8334,95.4357
1757.7976,95.5776
1758.7618,95.7231
1759.7261,95.8748
1760.6903,96.041
1761.6545,96.2191
1762.6188,96.3898
1763.5830,96.5315
1764.5472,96.6409
1765.5115,96.7325
1766.4757,96.8211
1767.4399,96.9086
1768.4042,96.9845
1769.3684,97.0424
1770.3326,97.1017
1771.2969,97.2096
1772.2611,97.3951
1773.2253,97.616
1774.1896,97.7956
1775.1538,97.9059
1776.1180,97.9795
1777.0823,98.0625
1778.0465,98.179
1779.0107,98.3267
1779.9750,98.4898
1780.9392,98.6536
1781.9034,98.8107
1782.8677,98.9572
1783.8319,99.0845
1784.7961,99.179
1785.7604,99.2324
1786.7246,99.2536
1787.6888,99.2657
1788.6531,99.2881
1789.6173,99.3211
1790.5815,99.3531
1791.5458,99.3822
1792.5100,99.4134
1793.4742,99.4327
1794.4385,99.4219
1795.4027,99.3928
1796.3669,99.3769
1797.3312,99.3948
1798.2954,99.445
1799.2596,99.5138
1800.2239,99.588
1801.1881,99.6567
1802.1523,99.7093
1803.1166,99.7394
1804.0808,99.7485
1805.0450,99.7429
1806.0093,99.7282
1806.9735,99.7073
1807.9377,99.6833
1808.9020,99.664
1809.8662,99.6617
1810.8304,99.6837
1811.7947,99.7246
1812.7589,99.7701
1813.7231,99.8092
1814.6874,99.838
1815.6516,99.8565
1816.6158,99.8643
1817.5801,99.8608
1818.5443,99.8476
1819.5085,99.8299
1820.4728,99.8152
1821.4370,99.8089
1822.4012,99.8101
1823.3655,99.8118
1824.3297,99.804
1825.2939,99.7788
1826.2582,99.7352
1827.2224,99.6835
1828.1866,99.6441
1829.1509,99.6379
1830.1151,99.6665
1831.0793,99.7028
1832.0436,99.714
1833.0078,99.6921
1833.9720,99.6534
1834.9363,99.6162
1835.9005,99.5881
1836.8647,99.5676
1837.8290,99.5523
1838.7932,99.5457
1839.7574,99.5565
1840.7217,99.5869
1841.6859,99.623
1842.6501,99.6414
1843.6144,99.6299
1844.5786,99.5951
1845.5428,99.5457
1846.5071,99.4886
1847.4713,99.4385
1848.4355,99.4207
1849.3998,99.446
1850.3640,99.487
1851.3282,99.5252
1852.2925,99.5479
1853.2567,99.5536
1854.2209,99.5486
1855.1852,99.5398
1856.1494,99.5318
1857.1136,99.5261
1858.0779,99.5243
1859.0421,99.5276
1860.0063,99.5347
1860.9706,99.5391
1861.9348,99.5318
1862.8990,99.5074
1863.8633,99.467
1864.8275,99.4163
1865.7917,99.3638
1866.7560,99.327
1867.7202,99.3342
1868.6844,99.4016
1869.6487,99.5018
1870.6129,99.5834
1871.5771,99.6204
1872.5414,99.6245
1873.5056,99.6194
1874.4698,99.6189
1875.4341,99.6242
1876.3983,99.6302
1877.3625,99.6332
1878.3268,99.6331
1879.2910,99.6321
1880.2552,99.6314
1881.2195,99.6298
1882.1837,99.6245
1883.1479,99.6142
1884.1122,99.6009
1885.0764,99.5896
1886.0406,99.5849
1887.0049,99.5882
1887.9691,99.5978
1888.9333,99.609
1889.8976,99.6145
1890.8618,99.6076
1891.8260,99.5874
1892.7903,99.5619
1893.7545,99.5428
1894.7188,99.5394
1895.6830,99.5533
1896.6472,99.5776
1897.6115,99.6008
1898.5757,99.6133
1899.5399,99.6128
1900.5042,99.6028
1901.4684,99.589
1902.4326,99.5754
1903.3969,99.5615
1904.3611,99.5435
1905.3253,99.5182
1906.2896,99.4865
1907.2538,99.4552
1908.2180,99.4348
1909.1823,99.4333
1910.1465,99.4493
1911.1107,99.4726
1912.0750,99.4929
1913.0392,99.5077
1914.0034,99.521
1914.9677,99.5357
1915.9319,99.5497
1916.8961,99.5559
1917.8604,99.5453
1918.8246,99.5123
1919.7888,99.4607
1920.7531,99.4055
1921.7173,99.3666
1922.6815,99.3575
1923.6458,99.3777
1924.6100,99.4132
1925.5742,99.4466
1926.5385,99.4676
1927.5027,99.4758
1928.4669,99.4761
1929.4312,99.4736
1930.3954,99.4712
1931.3596,99.4697
1932.3239,99.4692
1933.2881,99.4702
1934.2523,99.4725
1935.2166,99.4746
1936.1808,99.4744
1937.1450,99.4698
1938.1093,99.4606
1939.0735,99.4469
1940.0377,99.4294
1941.0020,99.4107
1941.9662,99.3964
1942.9304,99.3917
1943.8947,99.3974
1944.8589,99.4105
1945.8231,99.4291
1946.7874,99.4528
1947.7516,99.4801
1948.7158,99.5068
1949.6801,99.5272
1950.6443,99.5378
1951.6085,99.5394
1952.5728,99.5366
1953.5370,99.5348
1954.5012,99.5381
1955.4655,99.5467
1956.4297,99.5585
1957.3939,99.5707
1958.3582,99.5816
1959.3224,99.59
1960.2866,99.5953
1961.2509,99.5959
1962.2151,99.5905
1963.1793,99.5793
1964.1436,99.5653
1965.1078,99.5543
1966.0720,99.5535
1967.0363,99.5672
1968.0005,99.5932
1968.9647,99.6234
1969.9290,99.6492
1970.8932,99.6666
1971.8574,99.6763
1972.8217,99.6815
1973.7859,99.6854
1974.7501,99.6899
1975.7144,99.695
1976.6786,99.6995
1977.6428,99.7029
1978.6071,99.7052
1979.5713,99.7072
1980.5355,99.7095
1981.4998,99.7117
1982.4640,99.7126
1983.4282,99.7102
1984.3925,99.7032
1985.3567,99.6918
1986.3209,99.6772
1987.2852,99.6619
1988.2494,99.6484
1989.2136,99.6391
1990.1779,99.6363
1991.1421,99.6415
1992.1063,99.6543
1993.0706,99.6708
1994.0348,99.6858
1994.9990,99.6955
1995.9633,99.6992
1996.9275,99.6982
1997.8917,99.6947
1998.8560,99.691
1999.8202,99.6891
2000.7844,99.6895
2001.7487,99.6911
2002.7129,99.692
2003.6771,99.6904
2004.6414,99.6855
2005.6056,99.6782
2006.5698,99.6709
2007.5341,99.6659
2008.4983,99.6649
2009.4625,99.6673
2010.4268,99.6704
2011.3910,99.6702
2012.3552,99.6634
2013.3195,99.6488
2014.2837,99.6288
2015.2479,99.6086
2016.2122,99.5949
2017.1764,99.5924
2018.1406,99.6007
2019.1049,99.6143
2020.0691,99.6268
2021.0333,99.6338
2021.9976,99.6349
2022.9618,99.6324
2023.9260,99.6295
2024.8903,99.6281
2025.8545,99.6281
2026.8187,99.6284
2027.7830,99.6278
2028.7472,99.626
2029.7114,99.6237
2030.6757,99.6216
2031.6399,99.62
2032.6041,99.6187
2033.5684,99.6175
2034.5326,99.6158
2035.4968,99.6128
2036.4611,99.6081
2037.4253,99.6014
2038.3895,99.5933
2039.3538,99.5853
2040.3180,99.5799
2041.2822,99.579
2042.2465,99.583
2043.2107,99.5904
2044.1749,99.5987
2045.1392,99.6051
2046.1034,99.608
2047.0676,99.6067
2048.0320,99.6019
2048.9961,99.5949
2049.9604,99.5878
2050.9246,99.5822
2051.8889,99.5791
2052.8530,99.5781
2053.8174,99.5779
2054.7815,99.5772
2055.7458,99.5754
2056.7100,99.573
2057.6743,99.5704
2058.6384,99.5677
2059.6028,99.5638
2060.5669,99.5572
2061.5313,99.5475
2062.4954,99.5365
2063.4597,99.5279
2064.4238,99.5254
2065.3882,99.5311
2066.3523,99.5439
2067.3167,99.56
2068.2808,99.5751
2069.2451,99.5862
2070.2092,99.5924
2071.1736,99.5947
2072.1377,99.5951
2073.1021,99.5955
2074.0662,99.5968
2075.0305,99.5993
2075.9946,99.602
2076.9590,99.6041
2077.9231,99.6048
2078.8875,99.6041
2079.8516,99.6029
2080.8159,99.6022
2081.7800,99.6032
2082.7444,99.6059
2083.7085,99.6099
2084.6729,99.6143
2085.6370,99.6184
2086.6013,99.622
2087.5654,99.6252
2088.5298,99.6275
2089.4939,99.6287
2090.4583,99.6282
2091.4224,99.6263
2092.3867,99.624
2093.3508,99.6232
2094.3152,99.6255
2095.2793,99.6312
2096.2437,99.639
2097.2078,99.6464
2098.1721,99.6511
2099.1362,99.6519
2100.1006,99.6485
2101.0647,99.6452
2102.0291,99.6428
2102.9932,99.6422
2103.9575,99.6432
2104.9216,99.6449
2105.8860,99.646
2106.8501,99.6459
2107.8145,99.6446
2108.7786,99.6422
2109.7429,99.6388
2110.7070,99.6344
2111.6714,99.6294
2112.6355,99.6251
2113.5999,99.623
2114.5640,99.6247
2115.5283,99.6304
2116.4924,99.6387
2117.4568,99.6468
2118.4209,99.652
2119.3853,99.653
2120.3494,99.6501
2121.3137,99.6452
2122.2778,99.6405
2123.2422,99.6371
2124.2063,99.6353
2125.1707,99.6345
2126.1348,99.6342
2127.0991,99.635
2128.0632,99.638
2129.0276,99.6438
2129.9917,99.652
2130.9561,99.6603
2131.9202,99.6662
2132.8845,99.6678
2133.8486,99.6653
2134.8130,99.6613
2135.7771,99.6594
2136.7415,99.6628
2137.7056,99.672
2138.6699,99.6852
2139.6340,99.6991
2140.5984,99.7107
2141.5625,99.7189
2142.5269,99.7245
2143.4910,99.7295
2144.4553,99.7356
2145.4194,99.7433
2146.3838,99.7518
2147.3479,99.7595
2148.3123,99.7655
2149.2764,99.7694
2150.2407,99.7721
2151.2048,99.7745
2152.1692,99.7775
2153.1333,99.7815
2154.0977,99.7865
2155.0618,99.792
2156.0261,99.7974
2156.9902,99.8026
2157.9546,99.8079
2158.9187,99.8139
2159.8831,99.8212
2160.8472,99.83
2161.8115,99.8397
2162.7756,99.8487
2163.7400,99.8557
2164.7041,99.8596
2165.6685,99.8607
2166.6326,99.8602
2167.5969,99.8599
2168.5610,99.8611
2169.5254,99.8644
2170.4895,99.8693
2171.4539,99.8749
2172.4180,99.8803
2173.3823,99.8846
2174.3464,99.8877
2175.3108,99.8899
2176.2749,99.8918
2177.2393,99.8936
2178.2034,99.8953
2179.1677,99.8967
2180.1318,99.8971
2181.0962,99.896
2182.0603,99.8933
2183.0247,99.8895
2183.9888,99.8861
2184.9531,99.8847
2185.9172,99.8868
2186.8816,99.8932
2187.8457,99.9027
2188.8101,99.9134
2189.7742,99.9228
2190.7385,99.9289
2191.7026,99.9314
2192.6670,99.9314
2193.6311,99.9309
2194.5955,99.9315
2195.5596,99.9342
2196.5239,99.9382
2197.4880,99.9423
2198.4524,99.945
2199.4165,99.9454
2200.3809,99.944
2201.3450,99.9416
2202.3093,99.9393
2203.2734,99.9383
2204.2378,99.939
2205.2019,99.9418
2206.1663,99.9465
2207.1304,99.9528
2208.0947,99.9595
2209.0588,99.9652
2210.0232,99.9682
2210.9873,99.967
2211.9517,99.9617
2212.9158,99.9538
2213.8801,99.9457
2214.8442,99.9397
2215.8086,99.937
2216.7727,99.9373
2217.7371,99.9388
2218.7012,99.9401
2219.6655,99.9402
2220.6296,99.9396
2221.5940,99.9392
2222.5581,99.9401
2223.5225,99.9424
2224.4866,99.9454
2225.4509,99.9474
2226.4150,99.9468
2227.3794,99.9426
2228.3435,99.9347
2229.3079,99.9238
2230.2720,99.9113
2231.2363,99.899
2232.2004,99.8884
2233.1648,99.8806
2234.1289,99.876
2235.0933,99.8745
2236.0574,99.875
2237.0217,99.8758
2237.9858,99.875
2238.9502,99.871
2239.9143,99.8635
2240.8787,99.8534
2241.8428,99.8427
2242.8071,99.833
2243.7712,99.8251
2244.7356,99.8186
2245.6997,99.8122
2246.6641,99.8049
2247.6282,99.7962
2248.5925,99.7868
2249.5566,99.7775
2250.5210,99.7685
2251.4851,99.7594
2252.4495,99.7492
2253.4136,99.7371
2254.3779,99.7233
2255.3420,99.7084
2256.3064,99.694
2257.2705,99.681
2258.2349,99.6702
2259.1990,99.6614
2260.1633,99.6541
2261.1274,99.6474
2262.0918,99.6408
2263.0559,99.6343
2264.0203,99.6284
2264.9844,99.6238
2265.9487,99.6205
2266.9128,99.618
2267.8772,99.6148
2268.8413,99.6093
2269.8057,99.6008
2270.7698,99.5899
2271.7341,99.5783
2272.6982,99.5681
2273.6626,99.5613
2274.6267,99.5587
2275.5911,99.5606
2276.5552,99.5667
2277.5195,99.5764
2278.4836,99.5888
2279.4480,99.6025
2280.4121,99.6157
2281.3765,99.6261
2282.3406,99.631
2283.3049,99.6277
2284.2690,99.6141
2285.2334,99.5895
2286.1975,99.5555
2287.1619,99.5159
2288.1260,99.4749
2289.0903,99.4363
2290.0544,99.4016
2291.0188,99.3706
2291.9829,99.3429
2292.9473,99.3189
2293.9114,99.2999
2294.8757,99.2871
2295.8398,99.2808
2296.8042,99.2807
2297.7683,99.2867
2298.7327,99.3004
2299.6968,99.325
2300.6611,99.3624
2301.6252,99.4111
2302.5896,99.4648
2303.5537,99.5133
2304.5181,99.5473
2305.4822,99.5625
2306.4465,99.5631
2307.4106,99.5609
2308.3750,99.5713
2309.3391,99.6059
2310.3035,99.6672
2311.2676,99.747
2312.2319,99.8303
2313.1960,99.903
2314.1604,99.9587
2315.1245,100.002
2316.0889,100.044
2317.0530,100.099
2318.0173,100.172
2318.9814,100.255
2319.9458,100.327
2320.9099,100.353
2321.8743,100.301
2322.8384,100.16
2323.8027,99.9498
2324.7668,99.7201
2325.7312,99.5317
2326.6953,99.4312
2327.6597,99.4326
2328.6238,99.5095
2329.5881,99.6036
2330.5522,99.6483
2331.5166,99.6001
2332.4807,99.46
2333.4451,99.2691
2334.4092,99.0849
2335.3735,98.9526
2336.3376,98.8865
2337.3020,98.868
2338.2661,98.8572
2339.2305,98.8168
2340.1946,98.7397
2341.1589,98.6694
2342.1230,98.6929
2343.0874,98.8751
2344.0515,99.1518
2345.0159,99.3472
2345.9800,99.3299
2346.9443,99.143
2347.9084,98.9371
2348.8728,98.8416
2349.8369,98.8981
2350.8013,99.0525
2351.7654,99.1885
2352.7297,99.2009
2353.6938,99.0735
2354.6582,98.8827
2355.6223,98.7024
2356.5867,98.5376
2357.5508,98.3666
2358.5151,98.203
2359.4792,98.0922
2360.4436,98.0623
2361.4077,98.1064
2362.3721,98.2112
2363.3362,98.382
2364.3005,98.6286
2365.2646,98.9414
2366.2290,99.287
2367.1931,99.6269
2368.1575,99.9347
2369.1216,100.199
2370.0859,100.418
2371.0500,100.591
2372.0144,100.72
2372.9785,100.804
2373.9429,100.84
2374.9070,100.822
2375.8713,100.75
2376.8354,100.626
2377.7998,100.466
2378.7639,100.288
2379.7283,100.116
2380.6924,99.9667
2381.6567,99.8523
2382.6208,99.7757
2383.5852,99.7331
2384.5493,99.7166
2385.5137,99.7175
2386.4778,99.7278
2387.4421,99.7413
2388.4063,99.7537
2389.3706,99.7626
2390.3347,99.7673
2391.2991,99.7691
2392.2632,99.7703
2393.2275,99.7732
2394.1917,99.779
2395.1560,99.7872
2396.1201,99.7964
2397.0845,99.8051
2398.0486,99.8121
2399.0129,99.8171
2399.9771,99.8202
2400.9414,99.8209
2401.9055,99.8194
2402.8699,99.8164
2403.8340,99.8137
2404.7983,99.8135
2405.7625,99.817
2406.7268,99.8235
2407.6909,99.8306
2408.6553,99.8357
2409.6194,99.837
2410.5837,99.8349
2411.5479,99.8314
2412.5122,99.8285
2413.4763,99.8276
2414.4407,99.8289
2415.4048,99.8319
2416.3691,99.8366
2417.3333,99.8431
2418.2976,99.8514
2419.2617,99.8607
2420.2261,99.8691
2421.1902,99.8747
2422.1545,99.8767
2423.1187,99.8758
2424.0830,99.8742
2425.0471,99.8745
2426.0115,99.8783
2426.9756,99.8853
2427.9399,99.894
2428.9041,99.9022
2429.8684,99.9084
2430.8325,99.912
2431.7969,99.9133
2432.7610,99.9128
2433.7253,99.9114
2434.6895,99.9103
2435.6538,99.9105
2436.6179,99.913
2437.5823,99.9182
2438.5464,99.9252
2439.5107,99.9322
2440.4749,99.937
2441.4392,99.9385
2442.4033,99.9372
2443.3677,99.9346
2444.3318,99.9326
2445.2961,99.9323
2446.2603,99.9336
2447.2246,99.9353
2448.1887,99.9364
2449.1531,99.9363
2450.1172,99.9356
2451.0815,99.9352
2452.0457,99.9357
2453.0100,99.9371
2453.9741,99.9382
2454.9385,99.9379
2455.9026,99.9354
2456.8669,99.9313
2457.8311,99.9266
2458.7954,99.923
2459.7595,99.9212
2460.7239,99.9213
2461.6880,99.9224
2462.6523,99.9242
2463.6165,99.9264
2464.5808,99.929
2465.5449,99.9316
2466.5093,99.9332
2467.4734,99.9322
2468.4377,99.9282
2469.4019,99.9219
2470.3662,99.9153
2471.3303,99.911
2472.2947,99.91
2473.2588,99.9116
2474.2231,99.9137
2475.1873,99.9141
2476.1516,99.9117
2477.1157,99.9074
2478.0801,99.9031
2479.0442,99.9007
2480.0085,99.9008
2480.9727,99.903
2481.9370,99.9054
2482.9011,99.9063
2483.8655,99.9046
2484.8296,99.9005
2485.7939,99.8953
2486.7581,99.891
2487.7224,99.8894
2488.6865,99.8909
2489.6509,99.8947
2490.6150,99.8986
2491.5793,99.9005
2492.5435,99.8992
2493.5078,99.8954
2494.4719,99.8915
2495.4363,99.8898
2496.4004,99.8917
2497.3647,99.8964
2498.3289,99.9015
2499.2932,99.9045
2500.2573,99.9044
2501.2217,99.9024
2502.1858,99.9011
2503.1501,99.9029
2504.1143,99.9084
2505.0786,99.9159
2506.0427,99.9226
2507.0071,99.9258
2507.9712,99.9246
2508.9355,99.92
2509.8997,99.914
2510.8640,99.9086
2511.8281,99.905
2512.7925,99.904
2513.7566,99.9056
2514.7209,99.9101
2515.6851,99.9173
2516.6494,99.9263
2517.6135,99.9355
2518.5779,99.943
2519.5420,99.9475
2520.5063,99.9491
2521.4705,99.9485
2522.4348,99.9471
2523.3989,99.9459
2524.3633,99.9455
2525.3274,99.9457
2526.2917,99.9466
2527.2559,99.948
2528.2202,99.9499
2529.1843,99.9521
2530.1487,99.9541
2531.1128,99.9555
2532.0771,99.9556
2533.0413,99.9542
2534.0056,99.9516
2534.9697,99.9487
2535.9341,99.9469
2536.8982,99.9479
2537.8625,99.9529
2538.8267,99.9615
2539.7910,99.9718
2540.7551,99.9808
2541.7195,99.9863
2542.6836,99.9876
2543.6479,99.9861
2544.6121,99.9844
2545.5764,99.9846
2546.5405,99.987
2547.5049,99.9905
2548.4690,99.9935
2549.4333,99.9957
2550.3975,99.9981
2551.3618,100.002
2552.3259,100.01
2553.2903,100.02
2554.2544,100.03
2555.2188,100.038
2556.1829,100.042
2557.1472,100.043
2558.1113,100.043
2559.0757,100.045
2560.0398,100.048
2561.0042,100.051
2561.9683,100.053
2562.9326,100.052
2563.8967,100.048
2564.8611,100.044
2565.8252,100.043
2566.7896,100.046
2567.7537,100.051
2568.7180,100.058
2569.6821,100.063
2570.6465,100.065
2571.6106,100.065
2572.5750,100.065
2573.5391,100.065
2574.5034,100.066
2575.4675,100.066
2576.4319,100.066
2577.3960,100.064
2578.3604,100.061
2579.3245,100.059
2580.2888,100.059
2581.2529,100.062
2582.2173,100.068
2583.1814,100.075
2584.1458,100.079
2585.1099,100.079
2586.0742,100.075
2587.0383,100.067
2588.0027,100.059
2588.9668,100.051
2589.9312,100.047
2590.8953,100.044
2591.8596,100.044
2592.8237,100.043
2593.7881,100.043
2594.7522,100.044
2595.7166,100.044
2596.6807,100.045
2597.6450,100.046
2598.6091,100.046
2599.5735,100.046
2600.5376,100.047
2601.5020,100.048
2602.4661,100.048
2603.4304,100.046
2604.3945,100.042
2605.3589,100.037
2606.3230,100.034
2607.2874,100.035
2608.2515,100.038
2609.2158,100.043
2610.1799,100.047
2611.1443,100.049
2612.1084,100.05
2613.0728,100.049
2614.0369,100.048
2615.0012,100.047
2615.9653,100.045
2616.9297,100.042
2617.8938,100.038
2618.8582,100.035
2619.8223,100.033
2620.7866,100.033
2621.7507,100.035
2622.7151,100.038
2623.6792,100.04
2624.6436,100.042
2625.6077,100.041
2626.5720,100.037
2627.5361,100.033
2628.5005,100.028
2629.4646,100.024
2630.4290,100.023
2631.3931,100.023
2632.3574,100.024
2633.3215,100.025
2634.2859,100.025
2635.2500,100.027
2636.2144,100.029
2637.1785,100.033
2638.1428,100.037
2639.1069,100.042
2640.0713,100.047
2641.0354,100.052
2641.9998,100.055
2642.9639,100.057
2643.9282,100.057
2644.8923,100.054
2645.8567,100.05
2646.8208,100.044
2647.7852,100.04
2648.7493,100.037
2649.7136,100.035
2650.6777,100.035
2651.6421,100.036
2652.6062,100.039
2653.5706,100.043
2654.5347,100.05
2655.4990,100.06
2656.4631,100.072
2657.4275,100.084
2658.3916,100.094
2659.3560,100.103
2660.3201,100.11
2661.2844,100.116
2662.2485,100.121
2663.2129,100.125
2664.1770,100.131
2665.1414,100.137
2666.1055,100.145
2667.0698,100.152
2668.0339,100.159
2668.9983,100.165
2669.9624,100.17
2670.9268,100.177
2671.8909,100.184
2672.8552,100.194
2673.8193,100.204
2674.7837,100.215
2675.7478,100.225
2676.7122,100.234
2677.6763,100.238
2678.6406,100.237
2679.6047,100.231
2680.5691,100.22
2681.5332,100.209
2682.4976,100.2
2683.4617,100.196
2684.4260,100.194
2685.3901,100.194
2686.3545,100.193
2687.3186,100.189
2688.2830,100.185
2689.2471,100.182
2690.2114,100.183
2691.1755,100.188
2692.1399,100.196
2693.1040,100.204
2694.0684,100.21
2695.0325,100.211
2695.9968,100.21
2696.9609,100.207
2697.9253,100.204
2698.8894,100.202
2699.8538,100.2
2700.8179,100.199
2701.7822,100.197
2702.7463,100.194
2703.7107,100.191
2704.6748,100.188
2705.6392,100.185
2706.6033,100.18
2707.5676,100.171
2708.5317,100.158
2709.4961,100.142
2710.4602,100.125
2711.4246,100.11
2712.3887,100.098
2713.3530,100.088
2714.3171,100.078
2715.2815,100.067
2716.2456,100.054
2717.2100,100.04
2718.1741,100.027
2719.1384,100.015
2720.1025,100.005
2721.0669,99.9969
2722.0310,99.9897
2722.9954,99.9818
2723.9595,99.972
2724.9238,99.9603
2725.8879,99.9476
2726.8523,99.9357
2727.8164,99.9259
2728.7808,99.9183
2729.7449,99.9122
2730.7092,99.9065
2731.6733,99.9006
2732.6377,99.8944
2733.6018,99.8879
2734.5662,99.8806
2735.5303,99.8714
2736.4946,99.8591
2737.4587,99.8435
2738.4231,99.8256
2739.3872,99.8081
2740.3516,99.7938
2741.3157,99.7848
2742.2800,99.782
2743.2441,99.7846
2744.2085,99.7904
2745.1726,99.7967
2746.1370,99.8001
2747.1011,99.7985
2748.0654,99.7913
2749.0295,99.7797
2749.9939,99.7668
2750.9580,99.7559
2751.9224,99.7492
2752.8865,99.7465
2753.8508,99.7455
2754.8149,99.7425
2755.7793,99.7345
2756.7434,99.7204
2757.7078,99.7016
2758.6719,99.6812
2759.6362,99.6627
2760.6003,99.6483
2761.5647,99.6381
2762.5288,99.6301
2763.4932,99.6212
2764.4573,99.6088
2765.4216,99.592
2766.3857,99.5722
2767.3501,99.5521
2768.3142,99.5344
2769.2786,99.52
2770.2427,99.5067
2771.2070,99.4907
2772.1711,99.468
2773.1355,99.4372
2774.0996,99.4003
2775.0640,99.3613
2776.0281,99.324
2776.9924,99.2895
2777.9565,99.2554
2778.9209,99.2189
2779.8850,99.1793
2780.8494,99.1337
2781.8135,99.0858
2782.7778,99.0412
2783.7419,99.004
2784.7063,98.9753
2785.6704,98.9526
2786.6348,98.9314
2787.5989,98.9067
2788.5632,98.8749
2789.5273,98.8349
2790.4917,98.7884
2791.4558,98.739
2792.4202,98.6909
2793.3843,98.6472
2794.3486,98.6085
2795.3127,98.5725
2796.2771,98.5352
2797.2412,98.4927
2798.2056,98.4431
2799.1697,98.3868
2800.1340,98.3261
2801.0981,98.2637
2802.0625,98.2017
2803.0266,98.1408
2803.9910,98.0807
2804.9551,98.02
2805.9194,97.9572
2806.8835,97.8908
2807.8479,97.8195
2808.8120,97.7428
2809.7764,97.6605
2810.7405,97.5728
2811.7048,97.4796
2812.6689,97.381
2813.6333,97.2768
2814.5974,97.1668
2815.5618,97.0505
2816.5259,96.9269
2817.4902,96.7947
2818.4543,96.6519
2819.4187,96.497
2820.3828,96.3289
2821.3472,96.1474
2822.3113,95.9525
2823.2756,95.7439
2824.2397,95.5206
2825.2041,95.2817
2826.1682,95.0265
2827.1326,94.7561
2828.0967,94.4725
2829.0610,94.178
2830.0251,93.8741
2830.9895,93.5613
2831.9536,93.24
2832.9180,92.9117
2833.8821,92.58
2834.8464,92.2496
2835.8105,91.9252
2836.7749,91.6101
2837.7390,91.3059
2838.7034,91.0138
2839.6675,90.7345
2840.6318,90.4684
2841.5959,90.2135
2842.5603,89.9644
2843.5244,89.7137
2844.4888,89.4557
2845.4529,89.1913
2846.4172,88.9302
2847.3813,88.6886
2848.3457,88.4816
2849.3098,88.316
2850.2742,88.1863
2851.2383,88.0775
2852.2026,87.9723
2853.1667,87.8587
2854.1311,87.733
2855.0952,87.5983
2856.0596,87.4586
2857.0237,87.3147
2857.9880,87.1629
2858.9521,86.9976
2859.9165,86.8149
2860.8806,86.6147
2861.8450,86.4003
2862.8091,86.1771
2863.7734,85.9505
2864.7375,85.7248
2865.7019,85.5036
2866.6660,85.2899
2867.6304,85.0858
2868.5945,84.8924
2869.5588,84.7099
2870.5229,84.5371
2871.4873,84.3726
2872.4514,84.2153
2873.4158,84.0641
2874.3799,83.9187
2875.3442,83.7781
2876.3083,83.641
2877.2727,83.5049
2878.2368,83.3676
2879.2012,83.2285
2880.1653,83.0907
2881.1296,82.9617
2882.0938,82.8525
2883.0581,82.7739
2884.0222,82.7324
2884.9866,82.7272
2885.9507,82.7495
2886.9150,82.785
2887.8792,82.8173
2888.8435,82.8343
2889.8076,82.8319
2890.7720,82.8156
2891.7361,82.7964
2892.7004,82.7821
2893.6646,82.7682
2894.6289,82.7351
2895.5930,82.6555
2896.5574,82.5107
2897.5215,82.3063
2898.4858,82.0762
2899.4500,81.8713
2900.4143,81.736
2901.3784,81.6871
2902.3428,81.7077
2903.3069,81.757
2904.2712,81.7919
2905.2354,81.7843
2906.1997,81.7272
2907.1638,81.6286
2908.1282,81.5013
2909.0923,81.3557
2910.0566,81.1992
2911.0208,81.0379
2911.9851,80.8785
2912.9492,80.727
2913.9136,80.5865
2914.8777,80.456
2915.8420,80.3322
2916.8062,80.212
2917.7705,80.0939
2918.7346,79.9782
2919.6990,79.8657
2920.6631,79.7575
2921.6274,79.6545
2922.5916,79.558
2923.5559,79.4687
2924.5200,79.3864
2925.4844,79.31
2926.4485,79.2385
2927.4128,79.1733
2928.3770,79.1179
2929.3413,79.0766
2930.3054,79.0526
2931.2698,79.0467
2932.2339,79.058
2933.1982,79.0867
2934.1624,79.1353
2935.1267,79.2083
2936.0908,79.3099
2937.0552,79.4412
2938.0193,79.5988
2938.9836,79.7772
2939.9478,79.9712
2940.9121,80.1794
2941.8762,80.4034
2942.8406,80.6448
2943.8047,80.9014
2944.7690,81.1647
2945.7332,81.4219
2946.6975,81.6593
2947.6616,81.8681
2948.6260,82.0465
2949.5901,82.1988
2950.5544,82.332
2951.5186,82.4516
2952.4829,82.5603
2953.4470,82.6583
2954.4114,82.7459
2955.3755,82.8255
2956.3398,82.902
2957.3040,82.9815
2958.2683,83.068
2959.2324,83.1608
2960.1968,83.2537
2961.1609,83.337
2962.1252,83.4013
2963.0894,83.4424
2964.0537,83.4628
2965.0178,83.4707
2965.9822,83.4767
2966.9463,83.4906
2967.9106,83.52
2968.8748,83.5715
2969.8391,83.6519
2970.8032,83.7672
2971.7676,83.9215
2972.7317,84.1134
2973.6960,84.3364
2974.6602,84.5807
2975.6245,84.8369
2976.5886,85.099
2977.5530,85.3643
2978.5171,85.6327
2979.4814,85.9035
2980.4456,86.1725
2981.4099,86.43
2982.3740,86.6615
2983.3384,86.8527
2984.3025,86.9997
2985.2668,87.1191
2986.2310,87.2513
2987.1953,87.45
2988.1594,87.7593
2989.1238,88.1905
2990.0879,88.711
2991.0522,89.2557
2992.0164,89.7549
2992.9807,90.1642
2993.9448,90.4797
2994.9092,90.7319
2995.8733,90.9636
2996.8376,91.2071
2997.8018,91.4736
2998.7661,91.757
2999.7302,92.0458
3000.6946,92.3334
3001.6587,92.6214
3002.6230,92.9157
3003.5872,93.2215
3004.5515,93.5393
3005.5156,93.8647
3006.4800,94.1907
3007.4441,94.5101
3008.4084,94.8177
3009.3726,95.1124
3010.3369,95.3968
3011.3010,95.6767
3012.2654,95.9574
3013.2295,96.2406
3014.1938,96.5228
3015.1580,96.7972
3016.1223,97.0568
3017.0864,97.2978
3018.0508,97.5198
3019.0149,97.7254
3019.9792,97.9177
3020.9434,98.0994
3021.9077,98.2728
3022.8718,98.4401
3023.8362,98.603
3024.8003,98.7622
3025.7646,98.9161
3026.7288,99.062
3027.6931,99.1972
3028.6572,99.321
3029.6216,99.4352
3030.5857,99.543
3031.5500,99.6474
3032.5142,99.7495
3033.4785,99.849
3034.4426,99.9444
3035.4070,100.034
3036.3711,100.118
3037.3354,100.16
3038.2996,100.189
3039.2639,100.208
3040.2280,100.216
3041.1924,100.211
3042.1565,100.194
3043.1208,100.165
3044.0850,100.128
3045.0493,100.088
3046.0134,100.048
3046.9778,100.013
3047.9419,99.9813
3048.9063,99.9491
3049.8704,99.9096
3050.8347,99.8575
3051.7988,99.7919
3052.7632,99.7171
3053.7273,99.6409
3054.6917,99.571
3055.6558,99.5124
3056.6201,99.4659
3057.5842,99.4272
3058.5486,99.3889
3059.5127,99.3422
3060.4771,99.2806
3061.4412,99.2024
3062.4055,99.1122
3063.3696,99.0197
3064.3340,98.9362
3065.2981,98.8692
3066.2625,98.8194
3067.2266,98.7807
3068.1909,98.7442
3069.1550,98.703
3070.1194,98.6544
3071.0835,98.5997
3072.0479,98.5411
3073.0120,98.4799
3073.9763,98.4146
3074.9404,98.3431
3075.9048,98.2645
3076.8689,98.1805
3077.8333,98.0957
3078.7974,98.0154
3079.7617,97.9435
3080.7258,97.8805
3081.6902,97.8238
3082.6543,97.7696
3083.6187,97.7143
3084.5828,97.6566
3085.5471,97.5968
3086.5112,97.5358
3087.4756,97.4734
3088.4397,97.4074
3089.4041,97.3344
3090.3682,97.2513
3091.3325,97.1575
3092.2966,97.055
3093.2610,96.9481
3094.2251,96.8416
3095.1895,96.739
3096.1536,96.6421
3097.1179,96.5506
3098.0820,96.4632
3099.0464,96.3784
3100.0105,96.2948
3100.9749,96.2113
3101.9390,96.1277
3102.9033,96.0446
3103.8674,95.9634
3104.8318,95.885
3105.7959,95.8089
3106.7603,95.7327
3107.7244,95.6526
3108.6887,95.5646
3109.6528,95.467
3110.6172,95.3604
3111.5813,95.248
3112.5457,95.134
3113.5098,95.0225
3114.4741,94.9163
3115.4382,94.8164
3116.4026,94.7224
3117.3667,94.6326
3118.3311,94.5455
3119.2952,94.4596
3120.2595,94.3737
3121.2236,94.287
3122.1880,94.1987
3123.1521,94.1089
3124.1165,94.0182
3125.0806,93.9276
3126.0449,93.8373
3127.0090,93.7463
3127.9734,93.6521
3128.9375,93.5527
3129.9019,93.4476
3130.8660,93.3392
3131.8303,93.2319
3132.7944,93.1298
3133.7588,93.0341
3134.7229,92.9433
3135.6873,92.8537
3136.6514,92.7627
3137.6157,92.6694
3138.5798,92.5748
3139.5442,92.4805
3140.5083,92.3869
3141.4727,92.293
3142.4368,92.1969
3143.4011,92.0968
3144.3652,91.992
3145.3296,91.8832
3146.2937,91.7724
3147.2581,91.6624
3148.2222,91.556
3149.1865,91.4551
3150.1506,91.359
3151.1150,91.265
3152.0791,91.1685
3153.0435,91.0662
3154.0076,90.9575
3154.9719,90.8451
3155.9360,90.7331
3156.9004,90.625
3157.8645,90.5213
3158.8289,90.4198
3159.7930,90.3173
3160.7573,90.2118
3161.7214,90.1036
3162.6858,89.9945
3163.6499,89.8868
3164.6143,89.7814
3165.5784,89.6777
3166.5427,89.5745
3167.5068,89.4711
3168.4712,89.3673
3169.4353,89.3019
3170.3997,89.196
3171.3638,89.0864
3172.3281,88.9717
3173.2922,88.8522
3174.2566,88.731
3175.2207,88.6129
3176.1851,88.5027
3177.1492,88.4019
3178.1135,88.3083
3179.0776,88.2165
3180.0420,88.121
3181.0061,88.0187
3181.9705,87.9101
3182.9346,87.7985
3183.8989,87.6878
3184.8630,87.5803
3185.8274,87.4765
3186.7915,87.3761
3187.7559,87.2792
3188.7200,87.1873
3189.6843,87.1015
3190.6484,87.0208
3191.6128,86.9409
3192.5769,86.8553
3193.5413,86.7586
3194.5054,86.6497
3195.4697,86.5325
3196.4338,86.4143
3197.3982,86.3019
3198.3623,86.1986
3199.3267,86.1032
3200.2908,86.0124
3201.2551,85.9231
3202.2192,85.8346
3203.1836,85.747
3204.1477,85.6606
3205.1121,85.5745
3206.0762,85.4867
3207.0405,85.3958
3208.0046,85.301
3208.9690,85.2024
3209.9331,85.1009
3210.8975,84.9982
3211.8616,84.8974
3212.8259,84.8025
3213.7900,84.7175
3214.7544,84.643
3215.7185,84.5754
3216.6829,84.5077
3217.6470,84.4327
3218.6113,84.3469
3219.5754,84.2529
3220.5398,84.1572
3221.5039,84.0669
3222.4683,83.9852
3223.4324,83.911
3224.3967,83.8394
3225.3608,83.7653
3226.3252,83.6857
3227.2893,83.6011
3228.2537,83.5145
3229.2178,83.4303
3230.1821,83.3517
3231.1462,83.2798
3232.1106,83.2132
3233.0747,83.1491
3234.0391,83.0849
3235.0032,83.019
3235.9675,82.9516
3236.9316,82.8833
3237.8960,82.8139
3238.8601,82.7418
3239.8245,82.6653
3240.7886,82.5839
3241.7529,82.501
3242.7170,82.4228
3243.6814,82.3561
3244.6455,82.3048
3245.6099,82.2667
3246.5740,82.2337
3247.5383,82.1959
3248.5024,82.1455
3249.4668,82.0803
3250.4309,82.0034
3251.3953,81.9214
3252.3594,81.8412
3253.3237,81.7682
3254.2878,81.7044
3255.2522,81.6493
3256.2163,81.601
3257.1807,81.5566
3258.1448,81.5134
3259.1091,81.4688
3260.0732,81.4209
3261.0376,81.3685
3262.0017,81.3117
3262.9661,81.2515
3263.9302,81.1894
3264.8945,81.127
3265.8586,81.0652
3266.8230,81.0043
3267.7871,80.9438
3268.7515,80.8832
3269.7156,80.8219
3270.6799,80.7603
3271.6440,80.6992
3272.6084,80.6404
3273.5725,80.5861
3274.5369,80.5384
3275.5010,80.4989
3276.4653,80.4676
3277.4294,80.4429
3278.3938,80.4215
3279.3579,80.3991
3280.3223,80.3718
3281.2864,80.3381
3282.2507,80.2984
3283.2148,80.2547
3284.1792,80.2084
3285.1433,80.1591
3286.1077,80.105
3287.0718,80.0452
3288.0361,79.9815
3289.0002,79.919
3289.9646,79.8636
3290.9287,79.8197
3291.8931,79.7878
3292.8572,79.7651
3293.8215,79.747
3294.7856,79.7291
3295.7500,79.7076
3296.7141,79.6793
3297.6785,79.6414
3298.6426,79.5931
3299.6069,79.5359
3300.5710,79.4738
3301.5354,79.4123
3302.4995,79.3557
3303.4639,79.3068
3304.4280,79.2667
3305.3923,79.2366
3306.3564,79.2171
3307.3208,79.2077
3308.2849,79.2053
3309.2493,79.2041
3310.2134,79.1977
3311.1777,79.1826
3312.1418,79.1598
3313.1062,79.1341
3314.0703,79.1113
3315.0347,79.0948
3315.9988,79.0834
3316.9631,79.0729
3317.9272,79.0579
3318.8916,79.0351
3319.8557,79.0046
3320.8201,78.9698
3321.7842,78.9354
3322.7485,78.9053
3323.7126,78.8808
3324.6770,78.8604
3325.6411,78.8417
3326.6055,78.8231
3327.5696,78.8051
3328.5339,78.7895
3329.4980,78.7774
3330.4624,78.7681
3331.4265,78.7584
3332.3909,78.745
3333.3550,78.7263
3334.3193,78.7039
3335.2834,78.6818
3336.2478,78.6641
3337.2119,78.653
3338.1763,78.6481
3339.1404,78.6475
3340.1047,78.6487
3341.0688,78.649
3342.0332,78.6456
3342.9973,78.6349
3343.9617,78.615
3344.9258,78.5871
3345.8901,78.5574
3346.8542,78.5348
3347.8186,78.528
3348.7827,78.5401
3349.7471,78.5673
3350.7112,78.5996
3351.6755,78.6257
3352.6396,78.6373
3353.6040,78.6326
3354.5681,78.6158
3355.5325,78.595
3356.4966,78.5793
3357.4609,78.5745
3358.4250,78.5817
3359.3894,78.5954
3360.3535,78.6069
3361.3179,78.6079
3362.2820,78.5958
3363.2463,78.5759
3364.2104,78.5599
3365.1748,78.5596
3366.1389,78.5809
3367.1033,78.6206
3368.0674,78.6686
3369.0317,78.714
3369.9958,78.75
3370.9602,78.7756
3371.9243,78.7928
3372.8887,78.8036
3373.8528,78.8088
3374.8171,78.8097
3375.7813,78.8099
3376.7456,78.8158
3377.7097,78.8339
3378.6741,78.8667
3379.6382,78.9107
3380.6025,78.9576
3381.5667,78.9985
3382.5310,79.0277
3383.4951,79.0448
3384.4595,79.0529
3385.4236,79.0566
3386.3879,79.0598
3387.3521,79.0661
3388.3164,79.0791
3389.2805,79.1028
3390.2449,79.1394
3391.2090,79.1876
3392.1733,79.242
3393.1375,79.2953
3394.1018,79.3426
3395.0659,79.3841
3396.0303,79.4239
3396.9944,79.4666
3397.9587,79.5135
3398.9229,79.562
3399.8872,79.6074
3400.8513,79.6471
3401.8157,79.6822
3402.7798,79.7172
3403.7441,79.7571
3404.7083,79.8046
3405.6726,79.8588
3406.6367,79.9159
3407.6011,79.9705
3408.5652,80.0184
3409.5295,80.0583
3410.4937,80.0926
3411.4580,80.1267
3412.4221,80.1659
3413.3865,80.2135
3414.3506,80.2685
3415.3149,80.3275
3416.2791,80.3867
3417.2434,80.4451
3418.2075,80.505
3419.1719,80.5701
3420.1360,80.6428
3421.1003,80.7214
3422.0645,80.8003
3423.0288,80.8738
3423.9929,80.9386
3424.9573,80.9962
3425.9214,81.0513
3426.8857,81.1099
3427.8499,81.1767
3428.8142,81.253
3429.7783,81.3361
3430.7427,81.4217
3431.7068,81.5059
3432.6711,81.5882
3433.6353,81.6702
3434.5996,81.7537
3435.5637,81.8382
3436.5281,81.92
3437.4922,81.9951
3438.4565,82.0618
3439.4207,82.1217
3440.3850,82.1781
3441.3491,82.2334
3442.3135,82.2879
3443.2776,82.3415
3444.2419,82.3968
3445.2061,82.4608
3446.1704,82.5422
3447.1345,82.6447
3448.0989,82.7632
3449.0630,82.8862
3450.0273,83.0021
3450.9915,83.1055
3451.9558,83.1968
3452.9199,83.2798
3453.8843,83.3577
3454.8484,83.4318
3455.8127,83.5013
3456.7769,83.5662
3457.7412,83.6289
3458.7053,83.6936
3459.6697,83.7651
3460.6338,83.8454
3461.5981,83.9325
3462.5623,84.022
3463.5266,84.1095
3464.4907,84.194
3465.4551,84.2788
3466.4192,84.3691
3467.3835,84.4682
3468.3477,84.5742
3469.3120,84.6805
3470.2761,84.7796
3471.2405,84.8684
3472.2046,84.9498
3473.1689,85.0313
3474.1331,85.1195
3475.0974,85.2147
3476.0615,85.3106
3477.0259,85.3989
3477.9900,85.4749
3478.9543,85.5416
3479.9185,85.6089
3480.8828,85.6873
3481.8469,85.7818
3482.8113,85.8885
3483.7754,85.9984
3484.7397,86.1045
3485.7039,86.2053
3486.6682,86.3054
3487.6323,86.4113
3488.5967,86.5259
3489.5608,86.646
3490.5251,86.7638
3491.4893,86.872
3492.4536,86.968
3493.4177,87.0554
3494.3821,87.1416
3495.3462,87.2323
3496.3105,87.3265
3497.2747,87.4171
3498.2390,87.4977
3499.2031,87.5688
3500.1675,87.6408
3501.1316,87.7306
3502.0959,87.8522
3503.0601,88.0048
3504.0244,88.1709
3504.9885,88.3282
3505.9529,88.4651
3506.9170,88.5834
3507.8813,88.6934
3508.8455,88.8057
3509.8098,88.9262
3510.7739,89.0539
3511.7383,89.1842
3512.7024,89.3137
3513.6667,89.4416
3514.6309,89.5674
3515.5952,89.6879
3516.5593,89.7984
3517.5237,89.8956
3518.4878,89.9812
3519.4521,90.0614
3520.4163,90.1441
3521.3806,90.2352
3522.3447,90.3355
3523.3091,90.441
3524.2732,90.5473
3525.2375,90.6552
3526.2017,90.7723
3527.1660,90.9087
3528.1301,91.0687
3529.0945,91.2444
3530.0586,91.419
3531.0229,91.5773
3531.9871,91.7144
3532.9514,91.8368
3533.9155,91.9575
3534.8799,92.0889
3535.8440,92.2358
3536.8083,92.3914
3537.7725,92.5401
3538.7368,92.666
3539.7009,92.7614
3540.6653,92.8293
3541.6294,92.8818
3542.5938,92.9381
3543.5579,93.0223
3544.5222,93.1538
3545.4863,93.3319
3546.4507,93.5305
3547.4148,93.7165
3548.3792,93.8742
3549.3433,94.0112
3550.3076,94.1472
3551.2717,94.3002
3552.2361,94.4758
3553.2002,94.6632
3554.1646,94.8431
3555.1287,95.0009
3556.0930,95.1333
3557.0571,95.2438
3558.0215,95.336
3558.9856,95.4109
3559.9500,95.4693
3560.9141,95.5147
3561.8784,95.5536
3562.8425,95.5941
3563.8069,95.6458
3564.7710,95.7302
3565.7354,95.8872
3566.6995,96.1413
3567.6638,96.4437
3568.6279,96.7012
3569.5923,96.8678
3570.5564,96.9655
3571.5208,97.0387
3572.4849,97.1169
3573.4492,97.2075
3574.4133,97.3055
3575.3777,97.4036
3576.3418,97.4982
3577.3062,97.5891
3578.2703,97.6762
3579.2346,97.7562
3580.1987,97.8248
3581.1631,97.881
3582.1272,97.93
3583.0916,97.9796
3584.0557,98.035
3585.0200,98.1024
3585.9841,98.1987
3586.9485,98.3374
3587.9126,98.4899
3588.8770,98.5948
3589.8411,98.6233
3590.8054,98.5981
3591.7695,98.5598
3592.7339,98.5378
3593.6980,98.5447
3594.6624,98.5792
3595.6265,98.6281
3596.5908,98.677
3597.5549,98.7244
3598.5193,98.7834
3599.4834,98.8694
3600.4478,98.9841
3601.4119,99.1122
3602.3762,99.2344
3603.3403,99.3421
3604.3047,99.4378
3605.2688,99.5263
3606.2332,99.6114
3607.1973,99.6955
3608.1616,99.7762
3609.1257,99.8408
3610.0901,99.8747
3611.0542,99.875
3612.0186,99.8535
3612.9829,99.8288
3613.9470,99.8168
3614.9114,99.8261
3615.8755,99.8583
3616.8398,99.912
3617.8040,99.9865
3618.7683,100.075
3619.7324,100.151
3620.6968,100.171
3621.6609,100.125
3622.6252,100.056
3623.5894,100.024
3624.5537,100.062
3625.5178,100.161
3626.4822,100.275
3627.4463,100.373
3628.4106,100.463
3629.3748,100.533
3630.3391,100.535
3631.3032,100.47
3632.2676,100.399
3633.2317,100.375
3634.1960,100.408
3635.1602,100.474
3636.1245,100.535
3637.0886,100.567
3638.0530,100.564
3639.0171,100.533
3639.9814,100.484
3640.9456,100.427
3641.9099,100.371
3642.8740,100.331
3643.8384,100.315
3644.8025,100.306
3645.7668,100.256
3646.7310,100.124
3647.6953,99.9649
3648.6594,99.9735
3649.6238,100.18
3650.5879,100.354
3651.5522,100.369
3652.5164,100.285
3653.4807,100.187
3654.4448,100.113
3655.4092,100.053
3656.3733,99.9863
3657.3376,99.902
3658.3018,99.8095
3659.2661,99.733
3660.2302,99.6934
3661.1946,99.691
3662.1587,99.7073
3663.1230,99.7228
3664.0872,99.7339
3665.0515,99.7488
3666.0156,99.7666
3666.9800,99.764
3667.9441,99.7151
3668.9084,99.6315
3669.8726,99.5562
3670.8369,99.511
3671.8010,99.484
3672.7654,99.4551
3673.7295,99.4162
3674.6938,99.3954
3675.6580,99.4432
3676.6223,99.5491
3677.5864,99.6384
3678.5508,99.6717
3679.5149,99.6633
3680.4792,99.6338
3681.4434,99.5898
3682.4077,99.538
3683.3718,99.4973
3684.3362,99.4885
3685.3003,99.5103
3686.2646,99.5236
3687.2288,99.4764
3688.1931,99.3705
3689.1572,99.2868
3690.1216,99.2854
3691.0857,99.3376
3692.0500,99.3976
3693.0142,99.4554
3693.9785,99.519
3694.9426,99.5926
3695.9070,99.6749
3696.8711,99.7633
3697.8354,99.8551
3698.7996,99.9457
3699.7639,100.029
3700.7280,100.102
3701.6924,100.161
3702.6565,100.198
3703.6208,100.209
3704.5850,100.202
3705.5493,100.193
3706.5134,100.188
3707.4778,100.178
3708.4419,100.15
3709.4063,100.136
3710.3704,100.219
3711.3347,100.43
3712.2988,100.663
3713.2632,100.793
3714.2273,100.797
3715.1917,100.725
3716.1558,100.63
3717.1201,100.536
3718.0842,100.443
3719.0486,100.344
3720.0127,100.24
3720.9771,100.141
3721.9412,100.062
3722.9055,100.009
3723.8696,99.9858
3724.8340,99.9861
3725.7981,99.9963
3726.7625,100.005
3727.7266,100.011
3728.6909,100.021
3729.6550,100.034
3730.6194,100.03
3731.5835,99.9746
3732.5479,99.8578
3733.5120,99.7362
3734.4763,99.7143
3735.4404,99.8145
3736.4048,99.9239
3737.3689,99.9472
3738.3333,99.9157
3739.2974,99.9296
3740.2617,100.064
3741.2258,100.314
3742.1902,100.588
3743.1543,100.746
3744.1187,100.69
3745.0828,100.436
3746.0471,100.091
3747.0112,99.7733
3747.9756,99.5586
3748.9397,99.4757
3749.9041,99.5344
3750.8682,99.6941
3751.8325,99.8153
3752.7966,99.7795
3753.7610,99.6118
3754.7251,99.4134
3755.6895,99.26
3756.6536,99.1775
3757.6179,99.1621
3758.5820,99.1945
3759.5464,99.2407
3760.5105,99.2663
3761.4749,99.259
3762.4390,99.2647
3763.4033,99.2695
3764.3674,99.2807
3765.3318,99.2993
3766.2959,99.3214
3767.2603,99.3437
3768.2244,99.3672
3769.1887,99.3961
3770.1528,99.4288
3771.1172,99.4533
3772.0813,99.4575
3773.0457,99.4427
3774.0098,99.4224
3774.9741,99.4084
3775.9382,99.4012
3776.9026,99.3958
3777.8667,99.3924
3778.8311,99.3936
3779.7952,99.3919
3780.7595,99.373
3781.7236,99.3332
3782.6880,99.2859
3783.6521,99.2537
3784.6165,99.2564
3785.5806,99.2994
3786.5449,99.37
3787.5090,99.4452
3788.4734,99.5057
3789.4375,99.5456
3790.4019,99.5694
3791.3660,99.5812
3792.3303,99.5762
3793.2944,99.5417
3794.2588,99.4711
3795.2229,99.3771
3796.1873,99.2906
3797.1514,99.2406
3798.1157,99.2338
3799.0798,99.2523
3800.0442,99.274
3801.0083,99.2907
3801.9727,99.3046
3802.9368,99.3226
3803.9011,99.3614
3804.8652,99.4375
3805.8296,99.5438
3806.7937,99.6412
3807.7581,99.6789
3808.7222,99.6368
3809.6865,99.553
3810.6506,99.4971
3811.6150,99.5155
3812.5791,99.5959
3813.5435,99.6758
3814.5076,99.6883
3815.4719,99.6122
3816.4360,99.4795
3817.4004,99.3431
3818.3645,99.2468
3819.3289,99.217
3820.2930,99.2551
3821.2573,99.3221
3822.2214,99.3538
3823.1858,99.3213
3824.1499,99.2553
3825.1143,99.2096
3826.0784,99.2173
3827.0427,99.2766
3828.0068,99.3603
3828.9712,99.435
3829.9353,99.4796
3830.8997,99.4928
3831.8638,99.4881
3832.8281,99.4803
3833.7922,99.4721
3834.7566,99.4491
3835.7207,99.3909
3836.6851,99.2964
3837.6492,99.2006
3838.6135,99.1516
3839.5776,99.17
3840.5420,99.2424
3841.5061,99.3453
3842.4705,99.455
3843.4346,99.5415
3844.3989,99.5742
3845.3630,99.5424
3846.3274,99.473
3847.2915,99.4243
3848.2559,99.4567
3849.2200,99.5981
3850.1843,99.8183
3851.1484,100.04
3852.1128,100.213
3853.0769,100.346
3854.0413,100.384
3855.0054,100.23
3855.9697,99.9375
3856.9338,99.6558
3857.8982,99.486
3858.8623,99.4434
3859.8267,99.4786
3860.7908,99.5201
3861.7551,99.5223
3862.7192,99.4966
3863.6836,99.4904
3864.6477,99.5334
3865.6121,99.616
3866.5762,99.7062
3867.5405,99.768
3868.5046,99.7763
3869.4690,99.7328
3870.4331,99.6691
3871.3975,99.6221
3872.3616,99.606
3873.3259,99.6138
3874.2900,99.6369
3875.2544,99.6732
3876.2185,99.7204
3877.1829,99.7669
3878.1470,99.794
3879.1113,99.7913
3880.0754,99.771
3881.0398,99.7627
3882.0039,99.7915
3882.9683,99.8602
3883.9324,99.9473
3884.8967,100.017
3885.8608,100.039
3886.8252,100.007
3887.7893,99.9415
3888.7537,99.8701
3889.7178,99.8114
3890.6821,99.7734
3891.6462,99.7574
3892.6106,99.7542
3893.5747,99.7531
3894.5391,99.7597
3895.5032,99.7878
3896.4675,99.8358
3897.4316,99.8801
3898.3960,99.8961
3899.3601,99.8795
3900.3245,99.847
3901.2886,99.8182
3902.2529,99.806
3903.2170,99.8165
3904.1814,99.8439
3905.1455,99.8722
3906.1099,99.8902
3907.0740,99.9003
3908.0383,99.9101
3909.0024,99.9214
3909.9668,99.9299
3910.9309,99.9324
3911.8953,99.9326
3912.8594,99.9379
3913.8237,99.9531
3914.7878,99.9755
3915.7522,99.9974
3916.7163,100.011
3917.6807,100.008
3918.6448,99.9826
3919.6091,99.9336
3920.5732,99.8723
3921.5376,99.8158
3922.5017,99.7778
3923.4661,99.763
3924.4302,99.7639
3925.3945,99.765
3926.3586,99.7542
3927.3230,99.7327
3928.2871,99.7123
3929.2515,99.7081
3930.2156,99.7315
3931.1799,99.7855
3932.1440,99.8585
3933.1084,99.928
3934.0725,99.9761
3935.0369,100
3936.0010,100.009
3936.9653,100.008
3937.9294,99.9988
3938.8938,99.9785
3939.8579,99.9478
3940.8223,99.9162
3941.7864,99.8984
3942.7507,99.9034
3943.7148,99.9252
3944.6792,99.9483
3945.6433,99.9575
3946.6077,99.9471
3947.5718,99.9222
3948.5361,99.8967
3949.5002,99.8841
3950.4646,99.8887
3951.4287,99.9054
3952.3931,99.9264
3953.3572,99.9466
3954.3215,99.9642
3955.2856,99.9783
3956.2500,99.9876
3957.2141,99.9902
3958.1785,99.9854
3959.1426,99.9763
3960.1069,99.97
3961.0710,99.9744
3962.0354,99.9935
3962.9995,100.023
3963.9639,100.054
3964.9280,100.074
3965.8923,100.077
3966.8564,100.062
3967.8208,100.036
3968.7849,100.007
3969.7493,99.9808
3970.7134,99.9628
3971.6777,99.9534
3972.6418,99.9514
3973.6062,99.9555
3974.5703,99.9643
3975.5347,99.977
3976.4988,99.9924
3977.4631,100.009
3978.4272,100.026
3979.3916,100.041
3980.3557,100.053
3981.3201,100.063
3982.2842,100.07
3983.2485,100.075
3984.2126,100.08
3985.1770,100.085
3986.1411,100.089
3987.1055,100.088
3988.0696,100.081
3989.0339,100.062
3989.9980,100.032
3990.9624,99.9962
3991.9265,99.9637
3992.8909,99.9466
3993.8550,99.9526
3994.8193,99.9795
3995.7834,100.018
3996.7478,100.053
3997.7119,100.075
3998.6763,100.081
3999.6404,100.074
4000.6047,99.887

##### Extended Information
[Comments]
Sample name
Comment
User
Division
Company,HANKYONG

[Detailed Information]
Creation date,4/24/2024 11:16 AM

Data array type,Linear data array
Horizontal axis,Wavenumber [cm-1]
Vertical axis,%T
Start,649.893 cm-1
End,4000.6 cm-1
Data interval,0.964233 cm-1
Data points,3476    

[Measurement Information]
Model Name,FT/IR-4700typeA
Serial Number,D056761788

Accessory,ATR PRO ONE
Accessory S/N,C174761809
Incident angle,45 deg

Measurement Date,4/24/2024 11:15 AM

Light Source,Standard
Detector,TGS
Accumulation,32
Resolution,4 cm-1
Zero Filling,On
Apodization,Cosine
Gain,Auto (4)
Aperture,Auto (7.1 mm)
Scanning Speed,Auto (2 mm/sec)
Filter,Auto (30000 Hz)

