TITLE,
DATA TYPE,INFRARED SPECTRUM
ORIGIN,JASCO
OWNER,
DATE,24/04/24
TIME,11:44:56
SPECTROMETER/DATA SYSTEM,
LOCALE,1033
RESOLUTION,
DELTAX,0.964233
XUNITS,1/CM
YUNITS,TRANSMITTANCE
FIRSTX,  649.8934
LASTX, 4000.6047
NPOINTS,    3476
FIRSTY,    98.29855
MAXY,   101.18127
MINY,    52.40100
XYDATA
649.8934,98.2985
650.8576,98.285
651.8218,98.286
652.7861,98.2776
653.7503,98.2329
654.7145,98.143
655.6788,98.012
656.6430,97.8505
657.6072,97.6736
658.5715,97.5083
659.5357,97.3977
660.4999,97.3838
661.4642,97.4721
662.4284,97.6069
663.3926,97.6835
664.3569,97.5724
665.3211,97.1345
666.2853,96.257
667.2496,95.0103
668.2138,93.887
669.1780,93.5425
670.1423,94.0067
671.1065,94.772
672.0707,95.4346
673.0350,95.8443
673.9992,95.9947
674.9634,95.9525
675.9277,95.8296
676.8919,95.746
677.8561,95.7806
678.8204,95.9502
679.7846,96.2264
680.7488,96.5654
681.7131,96.9275
682.6773,97.285
683.6415,97.6241
684.6058,97.941
685.5700,98.2335
686.5342,98.4908
687.4985,98.6911
688.4627,98.8091
689.4269,98.8279
690.3912,98.7522
691.3554,98.6256
692.3196,98.5478
693.2839,98.6487
694.2481,98.9844
695.2123,99.4677
696.1766,99.9494
697.1408,100.329
698.1050,100.577
699.0693,100.715
700.0335,100.783
700.9977,100.814
701.9620,100.828
702.9262,100.831
703.8904,100.828
704.8547,100.835
705.8189,100.87
706.7831,100.941
707.7474,101.035
708.7116,101.125
709.6758,101.179
710.6401,101.181
711.6043,101.134
712.5685,101.048
713.5328,100.933
714.4970,100.783
715.4612,100.86
716.4255,100.578
717.3897,100.264
718.3539,99.976
719.3182,99.7898
720.2824,99.7586
721.2466,99.8812
722.2109,100.099
723.1751,100.329
724.1393,100.503
725.1036,100.593
726.0678,100.608
727.0320,100.581
727.9963,100.548
728.9605,100.537
729.9247,100.559
730.8890,100.61
731.8532,100.678
732.8174,100.747
733.7817,100.799
734.7459,100.819
735.7101,100.793
736.6744,100.712
737.6386,100.573
738.6028,100.378
739.5671,100.141
740.5313,99.8857
741.4955,99.6388
742.4598,99.423
743.4240,99.2503
744.3882,99.1195
745.3525,99.02
746.3167,98.9388
747.2809,98.8668
748.2452,98.8
749.2094,98.7386
750.1736,98.6835
751.1379,98.634
752.1021,98.5874
753.0663,98.5396
754.0306,98.4873
754.9948,98.4286
755.9590,98.3641
756.9233,98.2954
757.8875,98.2227
758.8517,98.1436
759.8160,98.0531
760.7802,97.9478
761.7444,97.8291
762.7087,97.7052
763.6729,97.589
764.6371,97.4931
765.6014,97.4264
766.5656,97.3918
767.5298,97.3871
768.4941,97.4065
769.4583,97.4405
770.4225,97.4763
771.3868,97.4985
772.3510,97.4928
773.3152,97.4499
774.2795,97.3681
775.2437,97.253
776.2079,97.1148
777.1722,96.9647
778.1364,96.8128
779.1006,96.6651
780.0649,96.5225
781.0291,96.3808
781.9933,96.233
782.9576,96.0742
783.9218,95.9061
784.8860,95.7382
785.8503,95.5835
786.8145,95.4506
787.7787,95.3387
788.7430,95.2371
789.7072,95.1324
790.6714,95.0159
791.6357,94.8887
792.5999,94.7602
793.5641,94.6414
794.5284,94.5377
795.4926,94.4452
796.4568,94.3522
797.4211,94.2448
798.3853,94.112
799.3495,93.9499
800.3138,93.7615
801.2780,93.5536
802.2422,93.3323
803.2065,93.1008
804.1707,92.8589
805.1349,92.6058
806.0992,92.3416
807.0634,92.0671
808.0276,91.7821
808.9919,91.4826
809.9561,91.1627
810.9203,90.8181
811.8846,90.4521
812.8488,90.0774
813.8130,89.7134
814.7773,89.3794
815.7415,89.0886
816.7057,88.8447
817.6700,88.6446
818.6342,88.4822
819.5984,88.3524
820.5627,88.2519
821.5269,88.1786
822.4911,88.1295
823.4554,88.1008
824.4196,88.088
825.3839,88.0863
826.3481,88.0911
827.3123,88.0969
828.2766,88.0967
829.2408,88.0813
830.2050,88.0391
831.1693,87.9583
832.1335,87.8291
833.0977,87.647
834.0620,87.4133
835.0262,87.1347
835.9904,86.82
836.9547,86.478
837.9189,86.1158
838.8831,85.7401
839.8474,85.3584
840.8116,84.9806
841.7758,84.6178
842.7401,84.2802
843.7043,83.9746
844.6685,83.703
845.6328,83.4628
846.5970,83.2485
847.5612,83.0546
848.5255,82.8787
849.4897,82.7228
850.4539,82.5932
851.4182,82.4973
852.3824,82.4392
853.3466,82.4161
854.3109,82.4188
855.2751,82.4347
856.2393,82.4532
857.2036,82.4692
858.1678,82.4842
859.1320,82.5046
860.0963,82.5387
861.0605,82.5951
862.0247,82.6807
862.9890,82.7995
863.9532,82.9514
864.9174,83.1318
865.8817,83.3333
866.8459,83.5484
867.8101,83.7722
868.7744,84.0035
869.7386,84.2421
870.7028,84.4863
871.6671,84.73
872.6313,84.9629
873.5955,85.1725
874.5598,85.3475
875.5240,85.48
876.4882,85.5675
877.4525,85.6127
878.4167,85.6229
879.3809,85.608
880.3452,85.5774
881.3094,85.5375
882.2736,85.4905
883.2379,85.4357
884.2021,85.3723
885.1663,85.302
886.1306,85.2301
887.0948,85.1646
888.0590,85.1138
889.0233,85.0848
889.9875,85.0819
890.9517,85.1066
891.9160,85.1571
892.8802,85.2292
893.8444,85.317
894.8087,85.4137
895.7729,85.5126
896.7371,85.6077
897.7014,85.6933
898.6656,85.7646
899.6298,85.8178
900.5941,85.8501
901.5583,85.8606
902.5225,85.8505
903.4868,85.8229
904.4510,85.7837
905.4152,85.7401
906.3795,85.6991
907.3437,85.6638
908.3079,85.632
909.2722,85.5971
910.2364,85.5534
911.2006,85.5025
912.1649,85.456
913.1291,85.4326
914.0933,85.4503
915.0576,85.5182
916.0218,85.634
916.9860,85.7874
917.9503,85.9674
918.9145,86.1689
919.8787,86.3933
920.8430,86.6452
921.8072,86.9277
922.7714,87.2396
923.7357,87.5767
924.6999,87.9354
925.6641,88.3155
926.6284,88.7208
927.5926,89.1584
928.5568,89.6358
929.5211,90.1603
930.4853,90.7385
931.4495,91.3778
932.4138,92.0857
933.3780,92.8681
934.3422,93.725
935.3065,94.6443
936.2707,95.5991
937.2349,96.5494
938.1992,97.4499
939.1634,98.2615
940.1276,98.96
941.0919,99.5389
942.0561,100.004
943.0203,100.366
943.9846,100.634
944.9488,100.811
945.9130,100.907
946.8773,100.93
947.8415,100.898
948.8057,100.825
949.7700,100.723
950.7342,100.593
951.6984,100.432
952.6627,100.237
953.6269,100.006
954.5911,99.7428
955.5554,99.4508
956.5196,99.1305
957.4838,98.7781
958.4481,98.4056
959.4123,98.0582
960.3765,97.6654
961.3408,97.2313
962.3050,96.7647
963.2692,96.2767
964.2335,95.779
965.1977,95.2817
966.1619,94.7922
967.1262,94.316
968.0904,93.8575
969.0546,93.4217
970.0189,93.015
970.9831,92.6445
971.9473,92.3157
972.9116,92.0298
973.8758,91.7824
974.8400,91.5639
975.8043,91.3616
976.7685,91.162
977.7327,90.9529
978.6970,90.7243
979.6612,90.4678
980.6254,90.1767
981.5897,89.8446
982.5539,89.4663
983.5181,89.0393
984.4824,88.5651
985.4466,88.0523
986.4108,87.5168
987.3751,86.9806
988.3393,86.4686
989.3035,86.0038
990.2678,85.6026
991.2320,85.2727
992.1962,85.0122
993.1605,84.8121
994.1247,84.6604
995.0889,84.5463
996.0532,84.4625
997.0174,84.4053
997.9816,84.371
998.9459,84.3523
999.9101,84.3357
1000.8743,84.3022
1001.8386,84.2297
1002.8028,84.0957
1003.7670,83.8795
1004.7313,83.5624
1005.6955,83.1295
1006.6597,82.5716
1007.6240,81.8871
1008.5882,81.0817
1009.5524,80.1653
1010.5167,79.1482
1011.4809,78.0383
1012.4451,76.8416
1013.4094,75.5647
1014.3736,74.2173
1015.3378,72.8125
1016.3021,71.3656
1017.2663,69.8927
1018.2305,68.4102
1019.1948,66.9336
1020.1590,65.4754
1021.1232,64.0417
1022.0875,62.6323
1023.0517,61.2451
1024.0160,59.8859
1024.9802,58.575
1025.9445,57.3478
1026.9087,56.2442
1027.8729,55.2942
1028.8372,54.5074
1029.8014,53.8725
1030.7656,53.3675
1031.7299,52.9728
1032.6941,52.6788
1033.6583,52.4866
1034.6226,52.401
1035.5868,52.4234
1036.5510,52.5478
1037.5153,52.7604
1038.4795,53.043
1039.4437,53.3758
1040.4080,53.7409
1041.3722,54.1251
1042.3364,54.5223
1043.3007,54.9334
1044.2649,55.3646
1045.2291,55.8235
1046.1934,56.3173
1047.1576,56.8521
1048.1218,57.4342
1049.0861,58.0717
1050.0503,58.7716
1051.0145,59.5357
1051.9788,60.3569
1052.9430,61.2203
1053.9072,62.1095
1054.8715,63.0157
1055.8357,63.9416
1056.7999,64.8966
1057.7642,65.8834
1058.7284,66.8836
1059.6926,67.8529
1060.6569,68.7317
1061.6211,69.4697
1062.5853,70.0505
1063.5496,70.5037
1064.5138,70.8925
1065.4780,71.2845
1066.4423,71.7167
1067.4065,72.1776
1068.3707,72.6135
1069.3350,72.9557
1070.2992,73.1526
1071.2634,73.1886
1072.2277,73.0823
1073.1919,72.869
1074.1561,72.5809
1075.1204,72.2368
1076.0846,71.844
1077.0488,71.4066
1078.0131,70.9331
1078.9773,70.4363
1079.9415,69.9296
1080.9058,69.4231
1081.8700,68.9228
1082.8342,68.4336
1083.7985,67.9625
1084.7627,67.5201
1085.7269,67.1189
1086.6912,66.772
1087.6554,66.489
1088.6196,66.2746
1089.5839,66.1256
1090.5481,66.0301
1091.5123,65.9694
1092.4766,65.9218
1093.4408,65.8689
1094.4050,65.8
1095.3693,65.7136
1096.3335,65.6148
1097.2977,65.5108
1098.2620,65.4071
1099.2262,65.3052
1100.1904,65.2037
1101.1547,65.1003
1102.1189,64.9957
1103.0831,64.8949
1104.0474,64.8081
1105.0116,64.7492
1105.9758,64.7328
1106.9401,64.7726
1107.9043,64.8809
1108.8685,65.0706
1109.8328,65.3568
1110.7970,65.7567
1111.7612,66.2859
1112.7255,66.954
1113.6897,67.7608
1114.6539,68.6979
1115.6182,69.7534
1116.5824,70.9181
1117.5466,72.1886
1118.5109,73.5658
1119.4751,75.0502
1120.4393,76.6357
1121.4036,78.3071
1122.3678,80.0407
1123.3320,81.8083
1124.2963,83.582
1125.2605,85.3373
1126.2247,87.0539
1127.1890,88.7142
1128.1532,90.3021
1129.1174,91.8014
1130.0817,93.1962
1131.0459,94.4559
1132.0101,95.5401
1132.9744,96.4868
1133.9386,97.2928
1134.9028,97.9573
1135.8671,98.4811
1136.8313,98.8667
1137.7955,99.1186
1138.7598,99.244
1139.7240,99.2521
1140.6882,99.1529
1141.6525,98.9563
1142.6167,98.6722
1143.5809,98.3117
1144.5452,97.8885
1145.5094,97.4204
1146.4736,96.9287
1147.4379,96.4362
1148.4021,95.9653
1149.3663,95.5352
1150.3306,95.1608
1151.2948,94.8514
1152.2590,94.6097
1153.2233,94.4319
1154.1875,94.3073
1155.1517,94.221
1156.1160,94.1552
1157.0802,94.0926
1158.0444,94.0177
1159.0087,93.918
1159.9729,93.7836
1160.9371,93.6064
1161.9014,93.3805
1162.8656,93.1029
1163.8298,92.7741
1164.7941,92.399
1165.7583,91.9866
1166.7225,91.5477
1167.6868,91.0927
1168.6510,90.6284
1169.6152,90.1581
1170.5795,89.6809
1171.5437,89.1944
1172.5079,88.6953
1173.4722,88.181
1174.4364,87.6497
1175.4006,87.0999
1176.3649,86.5313
1177.3291,85.9446
1178.2933,85.3422
1179.2576,84.7275
1180.2218,84.1042
1181.1860,83.4758
1182.1503,82.8457
1183.1145,82.218
1184.0787,81.598
1185.0430,80.9915
1186.0072,80.4033
1186.9714,79.8347
1187.9357,79.2833
1188.8999,78.7442
1189.8641,78.2122
1190.8284,77.684
1191.7926,77.1592
1192.7568,76.64
1193.7211,76.1301
1194.6853,75.6335
1195.6495,75.1533
1196.6138,74.6909
1197.5780,74.2449
1198.5422,73.8118
1199.5065,73.4302
1200.4707,73.0043
1201.4349,72.5828
1202.3992,72.1708
1203.3634,71.7765
1204.3276,71.4093
1205.2919,71.0767
1206.2561,70.7831
1207.2203,70.5294
1208.1846,70.3152
1209.1488,70.1402
1210.1130,70.0049
1211.0773,69.9106
1212.0415,69.8583
1213.0057,69.8473
1213.9700,69.8757
1214.9342,69.9417
1215.8984,70.044
1216.8627,70.1825
1217.8269,70.3565
1218.7911,70.563
1219.7554,70.7957
1220.7196,71.0461
1221.6838,71.3055
1222.6481,71.5657
1223.6123,71.8203
1224.5765,72.0627
1225.5408,72.2861
1226.5050,72.4823
1227.4692,72.6429
1228.4335,72.7609
1229.3977,72.8331
1230.3619,72.8629
1231.3262,72.8618
1232.2904,72.85
1233.2546,72.8534
1234.2189,72.8973
1235.1831,72.9995
1236.1473,73.1667
1237.1116,73.3955
1238.0758,73.6782
1239.0400,74.0097
1240.0043,74.3881
1240.9685,74.8108
1241.9327,75.2658
1242.8970,75.7276
1243.8612,76.1612
1244.8254,76.5343
1245.7897,76.8295
1246.7539,77.05
1247.7181,77.2142
1248.6824,77.3438
1249.6466,77.4524
1250.6108,77.5415
1251.5751,77.6034
1252.5393,77.6282
1253.5035,77.61
1254.4678,77.5491
1255.4320,77.4503
1256.3962,77.321
1257.3605,77.169
1258.3247,77.0034
1259.2889,76.8338
1260.2532,76.6696
1261.2174,76.5181
1262.1816,76.3828
1263.1459,76.2641
1264.1101,76.1603
1265.0743,76.0701
1266.0386,75.9936
1267.0028,75.9335
1267.9670,75.8946
1268.9313,75.8832
1269.8955,75.9058
1270.8597,75.9674
1271.8240,76.0699
1272.7882,76.2116
1273.7524,76.3879
1274.7167,76.5932
1275.6809,76.822
1276.6451,77.0701
1277.6094,77.3347
1278.5736,77.6138
1279.5378,77.9057
1280.5021,78.2076
1281.4663,78.5151
1282.4305,78.8223
1283.3948,79.1234
1284.3590,79.4148
1285.3232,79.6956
1286.2875,79.9683
1287.2517,80.2361
1288.2159,80.5012
1289.1802,80.7628
1290.1444,81.018
1291.1086,81.2642
1292.0729,81.5007
1293.0371,81.7298
1294.0013,81.9557
1294.9656,82.1817
1295.9298,82.4091
1296.8940,82.6356
1297.8583,82.8563
1298.8225,83.0645
1299.7867,83.2539
1300.7510,83.4194
1301.7152,83.5577
1302.6794,83.6689
1303.6437,83.7555
1304.6079,83.8208
1305.5721,83.8663
1306.5364,83.8916
1307.5006,83.8946
1308.4648,83.8735
1309.4291,83.8298
1310.3933,83.7688
1311.3575,83.6978
1312.3218,83.6236
1313.2860,83.5492
1314.2502,83.4737
1315.2145,83.3946
1316.1787,83.3122
1317.1429,83.2315
1318.1072,83.1605
1319.0714,83.1053
1320.0356,83.065
1320.9999,83.0318
1321.9641,82.9958
1322.9283,82.9509
1323.8926,82.898
1324.8568,82.8446
1325.8210,82.8013
1326.7853,82.7789
1327.7495,82.7858
1328.7137,82.8274
1329.6780,82.9065
1330.6422,83.0221
1331.6064,83.1669
1332.5707,83.327
1333.5349,83.4838
1334.4991,83.6215
1335.4634,83.7343
1336.4276,83.8339
1337.3918,83.9511
1338.3561,84.1253
1339.3203,84.3765
1340.2845,84.682
1341.2488,84.9873
1342.2130,85.2447
1343.1772,85.4342
1344.1415,85.5589
1345.1057,85.632
1346.0699,85.6682
1347.0342,85.6811
1347.9984,85.6817
1348.9626,85.676
1349.9269,85.664
1350.8911,85.642
1351.8553,85.607
1352.8196,85.5605
1353.7838,85.5092
1354.7480,85.4608
1355.7123,85.4173
1356.6765,85.373
1357.6407,85.3181
1358.6050,85.2478
1359.5692,85.1683
1360.5334,85.1024
1361.4977,85.0844
1362.4619,85.1346
1363.4261,85.2348
1364.3904,85.3419
1365.3546,85.4254
1366.3188,85.4837
1367.2831,85.5304
1368.2473,85.576
1369.2115,85.6193
1370.1758,85.6508
1371.1400,85.6637
1372.1042,85.6636
1373.0685,85.6718
1374.0327,85.7138
1374.9969,85.7976
1375.9612,85.9034
1376.9254,86.0032
1377.8896,86.0854
1378.8539,86.1572
1379.8181,86.2311
1380.7823,86.3129
1381.7466,86.3986
1382.7108,86.4831
1383.6750,86.5686
1384.6393,86.6677
1385.6035,86.7972
1386.5677,86.9607
1387.5320,87.1254
1388.4962,87.2283
1389.4604,87.2226
1390.4247,87.1086
1391.3889,86.9197
1392.3531,86.6985
1393.3174,86.4912
1394.2816,86.3454
1395.2458,86.2931
1396.2101,86.3231
1397.1743,86.3812
1398.1385,86.4044
1399.1028,86.3544
1400.0670,86.2255
1401.0313,86.0334
1401.9955,85.8008
1402.9597,85.5494
1403.9240,85.2978
1404.8882,85.0612
1405.8524,84.8462
1406.8167,84.6474
1407.7809,84.454
1408.7451,84.2587
1409.7094,84.0585
1410.6736,83.8507
1411.6378,83.6309
1412.6021,83.3958
1413.5663,83.1466
1414.5305,82.8857
1415.4948,82.6093
1416.4590,82.3062
1417.4232,81.9766
1418.3875,81.6461
1419.3517,81.3361
1420.3159,81.0308
1421.2802,80.7082
1422.2444,80.3768
1423.2086,80.0654
1424.1729,79.7999
1425.1371,79.5914
1426.1013,79.4393
1427.0656,79.3417
1428.0298,79.3034
1428.9940,79.3335
1429.9583,79.4318
1430.9225,79.5797
1431.8867,79.7538
1432.8510,79.9441
1433.8152,80.1542
1434.7794,80.3858
1435.7437,80.6213
1436.7079,80.8077
1437.6721,80.8666
1438.6364,80.7541
1439.6006,80.4975
1440.5648,80.1565
1441.5291,79.7757
1442.4933,79.3711
1443.4575,78.9416
1444.4218,78.4827
1445.3860,77.9955
1446.3502,77.4894
1447.3145,76.9827
1448.2787,76.4971
1449.2429,76.0474
1450.2072,75.6398
1451.1714,75.2814
1452.1356,74.9829
1453.0999,74.7446
1454.0641,74.5386
1455.0283,74.3183
1455.9926,74.0955
1456.9568,74.0038
1457.9210,74.0877
1458.8853,74.158
1459.8495,74.1046
1460.8137,73.9981
1461.7780,73.9543
1462.7422,74.0745
1463.7064,74.4433
1464.6707,75.0887
1465.6349,75.9098
1466.5991,76.7299
1467.5634,77.454
1468.5276,78.1127
1469.4918,78.79
1470.4561,79.5669
1471.4203,80.5103
1472.3845,81.6434
1473.3488,82.8511
1474.3130,83.8893
1475.2772,84.6009
1476.2415,85.0091
1477.2057,85.2105
1478.1699,85.2871
1479.1342,85.2967
1480.0984,85.286
1481.0626,85.2934
1482.0269,85.3383
1482.9911,85.4139
1483.9553,85.4941
1484.9196,85.5474
1485.8838,85.5461
1486.8480,85.4787
1487.8123,85.3801
1488.7765,85.34
1489.7407,85.406
1490.7050,85.4988
1491.6692,85.5169
1492.6334,85.4409
1493.5977,85.2978
1494.5619,85.1029
1495.5261,84.8535
1496.4904,84.5627
1497.4546,84.2745
1498.4188,84.0115
1499.3831,83.7483
1500.3473,83.4758
1501.3115,83.2324
1502.2758,83.0602
1503.2400,82.9459
1504.2042,82.7741
1505.1685,82.3203
1506.1327,81.4275
1507.0969,80.3913
1508.0612,79.7021
1509.0254,79.2997
1509.9896,78.9263
1510.9539,78.5155
1511.9181,78.1063
1512.8823,77.7637
1513.8466,77.5735
1514.8108,77.6348
1515.7750,78.0149
1516.7393,78.7035
1517.7035,79.6436
1518.6677,80.8272
1519.6320,82.3297
1520.5962,84.191
1521.5604,86.2457
1522.5247,88.1692
1523.4889,89.7577
1524.4531,91.0671
1525.4174,92.2696
1526.3816,93.4511
1527.3458,94.5544
1528.3101,95.4777
1529.2743,96.1868
1530.2385,96.7331
1531.2028,97.2096
1532.1670,97.6972
1533.1312,98.2134
1534.0955,98.6962
1535.0597,99.0801
1536.0239,99.3687
1536.9882,99.5896
1537.9524,99.7005
1538.9166,99.5797
1539.8809,99.2299
1540.8451,99.0141
1541.8093,99.2127
1542.7736,99.598
1543.7378,99.925
1544.7020,100.145
1545.6663,100.27
1546.6305,100.311
1547.5947,100.285
1548.5590,100.218
1549.5232,100.135
1550.4874,100.066
1551.4517,99.979
1552.4159,99.8722
1553.3801,99.7719
1554.3444,99.717
1555.3086,99.7189
1556.2728,99.7304
1557.2371,99.7035
1558.2013,99.7479
1559.1655,99.9325
1560.1298,99.9271
1561.0940,99.5568
1562.0582,99.0089
1563.0225,98.4933
1563.9867,98.1037
1564.9509,97.8399
1565.9152,97.6477
1566.8794,97.4534
1567.8436,97.2006
1568.8079,96.8831
1569.7721,96.5375
1570.7363,96.2028
1571.7006,95.9
1572.6648,95.6261
1573.6290,95.3367
1574.5933,94.956
1575.5575,94.451
1576.5217,93.8989
1577.4860,93.3971
1578.4502,92.9482
1579.4144,92.5138
1580.3787,92.0744
1581.3429,91.6193
1582.3071,91.1379
1583.2714,90.6285
1584.2356,90.1023
1585.1998,89.5718
1586.1641,89.0424
1587.1283,88.5154
1588.0925,87.9955
1589.0568,87.4916
1590.0210,87.0117
1590.9852,86.5569
1591.9495,86.1248
1592.9137,85.7163
1593.8779,85.34
1594.8422,85.007
1595.8064,84.7204
1596.7706,84.4713
1597.7349,84.245
1598.6991,84.0303
1599.6633,83.8258
1600.6276,83.6389
1601.5918,83.4809
1602.5560,83.3583
1603.5203,83.2671
1604.4845,83.1955
1605.4487,83.134
1606.4130,83.0862
1607.3772,83.072
1608.3414,83.1171
1609.3057,83.2308
1610.2699,83.3943
1611.2341,83.5813
1612.1984,83.7882
1613.1626,84.0417
1614.1268,84.3941
1615.0911,84.9139
1616.0553,85.6282
1617.0195,86.415
1617.9838,87.0593
1618.9480,87.479
1619.9122,87.7703
1620.8765,88.0736
1621.8407,88.4754
1622.8049,88.9787
1623.7692,89.5133
1624.7334,89.9902
1625.6976,90.3754
1626.6619,90.6996
1627.6261,91.002
1628.5903,91.2867
1629.5546,91.5357
1630.5188,91.7485
1631.4830,91.9487
1632.4473,92.1494
1633.4115,92.3208
1634.3757,92.4221
1635.3400,92.4883
1636.3042,92.6011
1637.2684,92.724
1638.2327,92.7695
1639.1969,92.7444
1640.1611,92.7105
1641.1254,92.715
1642.0896,92.7686
1643.0538,92.8398
1644.0181,92.8546
1644.9823,92.7361
1645.9465,92.5054
1646.9108,92.3091
1647.8750,92.2621
1648.8392,92.373
1649.8035,92.6178
1650.7677,92.9351
1651.7319,93.1971
1652.6962,93.3112
1653.6604,93.3081
1654.6246,93.1386
1655.5889,92.7575
1656.5531,92.3083
1657.5173,91.9506
1658.4816,91.7404
1659.4458,91.6399
1660.4100,91.5706
1661.3743,91.4744
1662.3385,91.3461
1663.3027,91.2063
1664.2670,91.0686
1665.2312,90.9397
1666.1954,90.8129
1667.1597,90.6584
1668.1239,90.4477
1669.0881,90.2055
1670.0524,90.0096
1671.0166,89.9065
1671.9808,89.8783
1672.9451,89.8889
1673.9093,89.9006
1674.8735,89.8619
1675.8378,89.7174
1676.8020,89.4486
1677.7662,89.1046
1678.7305,88.7798
1679.6947,88.5544
1680.6589,88.4446
1681.6232,88.3907
1682.5874,88.3055
1683.5516,88.1641
1684.5159,87.9837
1685.4801,87.7193
1686.4443,87.3439
1687.4086,86.9188
1688.3728,86.5254
1689.3370,86.2125
1690.3013,85.9923
1691.2655,85.8477
1692.2297,85.7361
1693.1940,85.5931
1694.1582,85.3507
1695.1224,84.9792
1696.0867,84.5366
1697.0509,84.1696
1698.0151,84.0095
1698.9794,84.0295
1699.9436,84.0417
1700.9078,83.8755
1701.8721,83.5211
1702.8363,83.0962
1703.8005,82.7372
1704.7648,82.5306
1705.7290,82.4906
1706.6932,82.5652
1707.6575,82.6717
1708.6217,82.752
1709.5859,82.7995
1710.5502,82.8398
1711.5144,82.8972
1712.4786,82.978
1713.4429,83.0766
1714.4071,83.2068
1715.3713,83.4486
1716.3356,83.9338
1717.2998,84.6468
1718.2640,85.3131
1719.2283,85.7072
1720.1925,85.8664
1721.1567,85.9525
1722.1210,86.0933
1723.0852,86.335
1724.0494,86.6543
1725.0137,86.9922
1725.9779,87.2945
1726.9421,87.5398
1727.9064,87.7441
1728.8706,87.9451
1729.8348,88.1833
1730.7991,88.4929
1731.7633,88.9052
1732.7275,89.4378
1733.6918,90.025
1734.6560,90.4935
1735.6202,90.729
1736.5845,90.797
1737.5487,90.8438
1738.5129,90.9716
1739.4772,91.1986
1740.4414,91.4764
1741.4056,91.7342
1742.3699,91.9284
1743.3341,92.0653
1744.2983,92.182
1745.2626,92.3134
1746.2268,92.4797
1747.1910,92.7001
1748.1553,93.0096
1749.1195,93.4379
1750.0837,93.9412
1751.0480,94.3943
1752.0122,94.6972
1752.9764,94.8531
1753.9407,94.9328
1754.9049,95.0063
1755.8691,95.1088
1756.8334,95.2413
1757.7976,95.3886
1758.7618,95.5398
1759.7261,95.6973
1760.6903,95.8693
1761.6545,96.0531
1762.6188,96.2288
1763.5830,96.3746
1764.5472,96.4881
1765.5115,96.5854
1766.4757,96.682
1767.4399,96.7782
1768.4042,96.8607
1769.3684,96.9203
1770.3326,96.9776
1771.2969,97.0852
1772.2611,97.2773
1773.2253,97.508
1774.1896,97.6922
1775.1538,97.7992
1776.1180,97.866
1777.0823,97.9446
1778.0465,98.0616
1779.0107,98.2141
1779.9750,98.3848
1780.9392,98.5585
1781.9034,98.7279
1782.8677,98.8888
1783.8319,99.0312
1784.7961,99.1387
1785.7604,99.2014
1786.7246,99.2289
1787.6888,99.2468
1788.6531,99.2758
1789.6173,99.3138
1790.5815,99.3449
1791.5458,99.3657
1792.5100,99.3853
1793.4742,99.3941
1794.4385,99.3756
1795.4027,99.3441
1796.3669,99.3334
1797.3312,99.3631
1798.2954,99.4266
1799.2596,99.5044
1800.2239,99.5812
1801.1881,99.6488
1802.1523,99.7011
1803.1166,99.7341
1804.0808,99.7495
1805.0450,99.7519
1806.0093,99.7449
1806.9735,99.7294
1807.9377,99.7076
1808.9020,99.6882
1809.8662,99.6856
1810.8304,99.7093
1811.7947,99.754
1812.7589,99.8046
1813.7231,99.8488
1814.6874,99.8828
1815.6516,99.9065
1816.6158,99.9193
1817.5801,99.9205
1818.5443,99.9114
1819.5085,99.8973
1820.4728,99.8863
1821.4370,99.8841
1822.4012,99.8894
1823.3655,99.8943
1824.3297,99.8884
1825.2939,99.8634
1826.2582,99.8187
1827.2224,99.7755
1828.1866,99.7572
1829.1509,99.7762
1830.1151,99.8339
1831.0793,99.8989
1832.0436,99.9341
1833.0078,99.9312
1833.9720,99.9095
1834.9363,99.8902
1835.9005,99.882
1836.8647,99.8835
1837.8290,99.8918
1838.7932,99.9111
1839.7574,99.9509
1840.7217,100.013
1841.6859,100.08
1842.6501,100.122
1843.6144,100.127
1844.5786,100.103
1845.5428,100.064
1846.5071,100.021
1847.4713,99.9897
1848.4355,99.9871
1849.3998,100.016
1850.3640,100.063
1851.3282,100.106
1852.2925,100.132
1853.2567,100.139
1854.2209,100.136
1855.1852,100.127
1856.1494,100.115
1857.1136,100.104
1858.0779,100.094
1859.0421,100.09
1860.0063,100.093
1860.9706,100.096
1861.9348,100.088
1862.8990,100.061
1863.8633,100.016
1864.8275,99.9577
1865.7917,99.8944
1866.7560,99.8456
1867.7202,99.8452
1868.6844,99.9153
1869.6487,100.028
1870.6129,100.125
1871.5771,100.174
1872.5414,100.184
1873.5056,100.181
1874.4698,100.178
1875.4341,100.18
1876.3983,100.182
1877.3625,100.182
1878.3268,100.182
1879.2910,100.183
1880.2552,100.184
1881.2195,100.181
1882.1837,100.173
1883.1479,100.157
1884.1122,100.137
1885.0764,100.12
1886.0406,100.11
1887.0049,100.109
1887.9691,100.116
1888.9333,100.127
1889.8976,100.135
1890.8618,100.13
1891.8260,100.111
1892.7903,100.083
1893.7545,100.06
1894.7188,100.053
1895.6830,100.066
1896.6472,100.093
1897.6115,100.12
1898.5757,100.137
1899.5399,100.139
1900.5042,100.13
1901.4684,100.117
1902.4326,100.103
1903.3969,100.087
1904.3611,100.066
1905.3253,100.035
1906.2896,99.9951
1907.2538,99.9568
1908.2180,99.9335
1909.1823,99.9353
1910.1465,99.9597
1911.1107,99.993
1912.0750,100.021
1913.0392,100.041
1914.0034,100.056
1914.9677,100.071
1915.9319,100.084
1916.8961,100.087
1917.8604,100.07
1918.8246,100.028
1919.7888,99.9659
1920.7531,99.9028
1921.7173,99.8613
1922.6815,99.8561
1923.6458,99.8849
1924.6100,99.9293
1925.5742,99.9678
1926.5385,99.9888
1927.5027,99.993
1928.4669,99.9872
1929.4312,99.9785
1930.3954,99.971
1931.3596,99.966
1932.3239,99.9638
1933.2881,99.9644
1934.2523,99.9668
1935.2166,99.9686
1936.1808,99.9659
1937.1450,99.9558
1938.1093,99.9378
1939.0735,99.9127
1940.0377,99.8824
1941.0020,99.8511
1941.9662,99.8263
1942.9304,99.8148
1943.8947,99.8172
1944.8589,99.829
1945.8231,99.8469
1946.7874,99.8693
1947.7516,99.8944
1948.7158,99.9175
1949.6801,99.9332
1950.6443,99.9385
1951.6085,99.9351
1952.5728,99.928
1953.5370,99.923
1954.5012,99.9235
1955.4655,99.9295
1956.4297,99.9383
1957.3939,99.9471
1958.3582,99.9544
1959.3224,99.9597
1960.2866,99.9621
1961.2509,99.9596
1962.2151,99.95
1963.1793,99.9325
1964.1436,99.9099
1965.1078,99.8892
1966.0720,99.8802
1967.0363,99.8897
1968.0005,99.9165
1968.9647,99.9513
1969.9290,99.9831
1970.8932,100.005
1971.8574,100.016
1972.8217,100.02
1973.7859,100.021
1974.7501,100.021
1975.7144,100.022
1976.6786,100.023
1977.6428,100.023
1978.6071,100.022
1979.5713,100.021
1980.5355,100.02
1981.4998,100.018
1982.4640,100.016
1983.4282,100.01
1984.3925,99.9999
1985.3567,99.9858
1986.3209,99.9681
1987.2852,99.9485
1988.2494,99.929
1989.2136,99.9125
1990.1779,99.9031
1991.1421,99.9046
1992.1063,99.9175
1993.0706,99.9372
1994.0348,99.9558
1994.9990,99.9671
1995.9633,99.9696
1996.9275,99.9656
1997.8917,99.9591
1998.8560,99.9537
1999.8202,99.9516
2000.7844,99.9522
2001.7487,99.953
2002.7129,99.9514
2003.6771,99.9458
2004.6414,99.9363
2005.6056,99.9247
2006.5698,99.9134
2007.5341,99.9047
2008.4983,99.8997
2009.4625,99.8978
2010.4268,99.8963
2011.3910,99.8911
2012.3552,99.8785
2013.3195,99.8571
2014.2837,99.8296
2015.2479,99.8026
2016.2122,99.7847
2017.1764,99.7814
2018.1406,99.7918
2019.1049,99.8087
2020.0691,99.8234
2021.0333,99.8307
2021.9976,99.8303
2022.9618,99.8258
2023.9260,99.8214
2024.8903,99.8193
2025.8545,99.8193
2026.8187,99.8194
2027.7830,99.8177
2028.7472,99.8133
2029.7114,99.8065
2030.6757,99.7985
2031.6399,99.7904
2032.6041,99.7834
2033.5684,99.7786
2034.5326,99.776
2035.4968,99.774
2036.4611,99.7702
2037.4253,99.7619
2038.3895,99.7485
2039.3538,99.7322
2040.3180,99.7177
2041.2822,99.7096
2042.2465,99.7099
2043.2107,99.7171
2044.1749,99.7268
2045.1392,99.7347
2046.1034,99.7381
2047.0676,99.7363
2048.0320,99.7306
2048.9961,99.7231
2049.9604,99.7154
2050.9246,99.7088
2051.8889,99.7033
2052.8530,99.6983
2053.8174,99.6929
2054.7815,99.6869
2055.7458,99.6805
2056.7100,99.6747
2057.6743,99.6698
2058.6384,99.6652
2059.6028,99.659
2060.5669,99.6498
2061.5313,99.6376
2062.4954,99.6249
2063.4597,99.6161
2064.4238,99.6153
2065.3882,99.6236
2066.3523,99.6384
2067.3167,99.6546
2068.2808,99.6674
2069.2451,99.6741
2070.2092,99.6748
2071.1736,99.6713
2072.1377,99.6664
2073.1021,99.6622
2074.0662,99.6599
2075.0305,99.6596
2075.9946,99.6609
2076.9590,99.663
2077.9231,99.6655
2078.8875,99.6679
2079.8516,99.6702
2080.8159,99.6722
2081.7800,99.6738
2082.7444,99.6745
2083.7085,99.6738
2084.6729,99.6717
2085.6370,99.669
2086.6013,99.6665
2087.5654,99.6655
2088.5298,99.6665
2089.4939,99.669
2090.4583,99.6723
2091.4224,99.6752
2092.3867,99.6773
2093.3508,99.679
2094.3152,99.6808
2095.2793,99.6831
2096.2437,99.6856
2097.2078,99.6873
2098.1721,99.6871
2099.1362,99.6842
2100.1006,99.6782
2101.0647,99.6733
2102.0291,99.6697
2102.9932,99.6685
2103.9575,99.6693
2104.9216,99.671
2105.8860,99.6721
2106.8501,99.6718
2107.8145,99.6699
2108.7786,99.6667
2109.7429,99.6623
2110.7070,99.6565
2111.6714,99.6495
2112.6355,99.6421
2113.5999,99.6357
2114.5640,99.6318
2115.5283,99.6311
2116.4924,99.633
2117.4568,99.6362
2118.4209,99.6391
2119.3853,99.6405
2120.3494,99.6404
2121.3137,99.6391
2122.2778,99.6372
2123.2422,99.6349
2124.2063,99.6323
2125.1707,99.6295
2126.1348,99.627
2127.0991,99.6254
2128.0632,99.6252
2129.0276,99.6264
2129.9917,99.6284
2130.9561,99.63
2131.9202,99.6299
2132.8845,99.6276
2133.8486,99.6239
2134.8130,99.6207
2135.7771,99.6201
2136.7415,99.6236
2137.7056,99.6307
2138.6699,99.6395
2139.6340,99.6471
2140.5984,99.6518
2141.5625,99.6533
2142.5269,99.6533
2143.4910,99.6535
2144.4553,99.6555
2145.4194,99.6594
2146.3838,99.6644
2147.3479,99.6697
2148.3123,99.6743
2149.2764,99.6778
2150.2407,99.6799
2151.2048,99.6803
2152.1692,99.6792
2153.1333,99.6776
2154.0977,99.6767
2155.0618,99.6777
2156.0261,99.6808
2156.9902,99.6854
2157.9546,99.6901
2158.9187,99.6945
2159.8831,99.6988
2160.8472,99.704
2161.8115,99.7106
2162.7756,99.7179
2163.7400,99.7243
2164.7041,99.7279
2165.6685,99.7281
2166.6326,99.7253
2167.5969,99.7215
2168.5610,99.7183
2169.5254,99.7171
2170.4895,99.7181
2171.4539,99.7209
2172.4180,99.7251
2173.3823,99.7302
2174.3464,99.7357
2175.3108,99.741
2176.2749,99.7455
2177.2393,99.7485
2178.2034,99.7497
2179.1677,99.7493
2180.1318,99.7471
2181.0962,99.7435
2182.0603,99.7386
2183.0247,99.7331
2183.9888,99.7278
2184.9531,99.7238
2185.9172,99.7216
2186.8816,99.7214
2187.8457,99.7225
2188.8101,99.7242
2189.7742,99.726
2190.7385,99.7283
2191.7026,99.7316
2192.6670,99.7361
2193.6311,99.7414
2194.5955,99.746
2195.5596,99.7483
2196.5239,99.7466
2197.4880,99.7408
2198.4524,99.7319
2199.4165,99.722
2200.3809,99.7137
2201.3450,99.7092
2202.3093,99.7093
2203.2734,99.7131
2204.2378,99.7185
2205.2019,99.7229
2206.1663,99.7248
2207.1304,99.7237
2208.0947,99.7206
2209.0588,99.717
2210.0232,99.7136
2210.9873,99.7104
2211.9517,99.7066
2212.9158,99.702
2213.8801,99.6968
2214.8442,99.6921
2215.8086,99.6884
2216.7727,99.6852
2217.7371,99.6812
2218.7012,99.675
2219.6655,99.6665
2220.6296,99.6573
2221.5940,99.6503
2222.5581,99.6477
2223.5225,99.6499
2224.4866,99.6548
2225.4509,99.6585
2226.4150,99.6577
2227.3794,99.6506
2228.3435,99.6378
2229.3079,99.6217
2230.2720,99.6054
2231.2363,99.5915
2232.2004,99.5812
2233.1648,99.5744
2234.1289,99.5699
2235.0933,99.5659
2236.0574,99.5609
2237.0217,99.5542
2237.9858,99.5461
2238.9502,99.5376
2239.9143,99.5296
2240.8787,99.5223
2241.8428,99.5147
2242.8071,99.5053
2243.7712,99.4932
2244.7356,99.4783
2245.6997,99.4621
2246.6641,99.4464
2247.6282,99.4326
2248.5925,99.4209
2249.5566,99.41
2250.5210,99.3985
2251.4851,99.3854
2252.4495,99.3704
2253.4136,99.354
2254.3779,99.337
2255.3420,99.3196
2256.3064,99.3023
2257.2705,99.2853
2258.2349,99.2691
2259.1990,99.2538
2260.1633,99.239
2261.1274,99.2239
2262.0918,99.2077
2263.0559,99.1908
2264.0203,99.1748
2264.9844,99.1619
2265.9487,99.1531
2266.9128,99.1476
2267.8772,99.1428
2268.8413,99.1356
2269.8057,99.1247
2270.7698,99.1112
2271.7341,99.098
2272.6982,99.088
2273.6626,99.0827
2274.6267,99.0817
2275.5911,99.0842
2276.5552,99.0896
2277.5195,99.0985
2278.4836,99.1113
2279.4480,99.1269
2280.4121,99.142
2281.3765,99.1516
2282.3406,99.151
2283.3049,99.1369
2284.2690,99.1083
2285.2334,99.0672
2286.1975,99.0174
2287.1619,98.9638
2288.1260,98.9105
2289.0903,98.8594
2290.0544,98.8106
2291.0188,98.7634
2291.9829,98.7179
2292.9473,98.6763
2293.9114,98.6415
2294.8757,98.6162
2295.8398,98.6009
2296.8042,98.5952
2297.7683,98.5992
2298.7327,98.6157
2299.6968,98.6489
2300.6611,98.7015
2301.6252,98.771
2302.5896,98.8473
2303.5537,98.9152
2304.5181,98.9605
2305.4822,98.9769
2306.4465,98.9716
2307.4106,98.9641
2308.3750,98.9793
2309.3391,99.036
2310.3035,99.1373
2311.2676,99.2683
2312.2319,99.4039
2313.1960,99.5212
2314.1604,99.6119
2315.1245,99.6848
2316.0889,99.7588
2317.0530,99.8512
2318.0173,99.9656
2318.9814,100.085
2319.9458,100.172
2320.9099,100.18
2321.8743,100.07
2322.8384,99.8387
2323.8027,99.5256
2324.7668,99.2056
2325.7312,98.9599
2326.6953,98.8437
2327.6597,98.8638
2328.6238,98.9735
2329.5881,99.089
2330.5522,99.1253
2331.5166,99.0373
2332.4807,98.8404
2333.4451,98.5968
2334.4092,98.378
2335.3735,98.2287
2336.3376,98.1501
2337.3020,98.1053
2338.2661,98.043
2339.2305,97.9416
2340.1946,97.8061
2341.1589,97.7087
2342.1230,97.778
2343.0874,98.0963
2344.0515,98.5485
2345.0159,98.8471
2345.9800,98.8089
2346.9443,98.5197
2347.9084,98.2137
2348.8728,98.0863
2349.8369,98.1981
2350.8013,98.4638
2351.7654,98.6996
2352.7297,98.7296
2353.6938,98.5109
2354.6582,98.1533
2355.6223,97.7844
2356.5867,97.4406
2357.5508,97.1156
2358.5151,96.8463
2359.4792,96.7021
2360.4436,96.7108
2361.4077,96.8383
2362.3721,97.0442
2363.3362,97.3251
2364.3005,97.6962
2365.2646,98.1501
2366.2290,98.6463
2367.1931,99.1352
2368.1575,99.5825
2369.1216,99.9735
2370.0859,100.304
2371.0500,100.572
2372.0144,100.774
2372.9785,100.905
2373.9429,100.958
2374.9070,100.927
2375.8713,100.813
2376.8354,100.626
2377.7998,100.388
2378.7639,100.126
2379.7283,99.8708
2380.6924,99.6476
2381.6567,99.4743
2382.6208,99.3582
2383.5852,99.2971
2384.5493,99.2806
2385.5137,99.2944
2386.4778,99.3235
2387.4421,99.3549
2388.4063,99.38
2389.3706,99.3948
2390.3347,99.4
2391.2991,99.3995
2392.2632,99.3989
2393.2275,99.4024
2394.1917,99.4118
2395.1560,99.4254
2396.1201,99.4397
2397.0845,99.4512
2398.0486,99.458
2399.0129,99.461
2399.9771,99.4626
2400.9414,99.465
2401.9055,99.4689
2402.8699,99.474
2403.8340,99.4793
2404.7983,99.4845
2405.7625,99.4897
2406.7268,99.4953
2407.6909,99.5014
2408.6553,99.5073
2409.6194,99.5125
2410.5837,99.517
2411.5479,99.5212
2412.5122,99.5259
2413.4763,99.5314
2414.4407,99.5375
2415.4048,99.5436
2416.3691,99.5493
2417.3333,99.5546
2418.2976,99.5601
2419.2617,99.5657
2420.2261,99.5707
2421.1902,99.5742
2422.1545,99.5752
2423.1187,99.5743
2424.0830,99.5729
2425.0471,99.5732
2426.0115,99.5771
2426.9756,99.585
2427.9399,99.5961
2428.9041,99.6087
2429.8684,99.6205
2430.8325,99.6298
2431.7969,99.6355
2432.7610,99.6373
2433.7253,99.6361
2434.6895,99.6335
2435.6538,99.632
2436.6179,99.6334
2437.5823,99.6386
2438.5464,99.6469
2439.5107,99.6562
2440.4749,99.6639
2441.4392,99.6686
2442.4033,99.6707
2443.3677,99.6718
2444.3318,99.6738
2445.2961,99.6775
2446.2603,99.6822
2447.2246,99.6859
2448.1887,99.6866
2449.1531,99.6838
2450.1172,99.6788
2451.0815,99.6742
2452.0457,99.6726
2453.0100,99.6754
2453.9741,99.682
2454.9385,99.6904
2455.9026,99.6977
2456.8669,99.7019
2457.8311,99.7023
2458.7954,99.6997
2459.7595,99.6958
2460.7239,99.6923
2461.6880,99.6908
2462.6523,99.6917
2463.6165,99.6952
2464.5808,99.7003
2465.5449,99.7059
2466.5093,99.7104
2467.4734,99.7122
2468.4377,99.7105
2469.4019,99.7058
2470.3662,99.7003
2471.3303,99.697
2472.2947,99.6987
2473.2588,99.7059
2474.2231,99.7164
2475.1873,99.7258
2476.1516,99.7299
2477.1157,99.7267
2478.0801,99.7179
2479.0442,99.7081
2480.0085,99.7022
2480.9727,99.7029
2481.9370,99.7094
2482.9011,99.718
2483.8655,99.725
2484.8296,99.728
2485.7939,99.7279
2486.7581,99.727
2487.7224,99.728
2488.6865,99.7321
2489.6509,99.7383
2490.6150,99.7439
2491.5793,99.7464
2492.5435,99.7444
2493.5078,99.7388
2494.4719,99.7326
2495.4363,99.7293
2496.4004,99.7316
2497.3647,99.7397
2498.3289,99.7513
2499.2932,99.7628
2500.2573,99.7705
2501.2217,99.7733
2502.1858,99.7723
2503.1501,99.7701
2504.1143,99.7694
2505.0786,99.7719
2506.0427,99.7774
2507.0071,99.7845
2507.9712,99.7915
2508.9355,99.7968
2509.8997,99.7993
2510.8640,99.7988
2511.8281,99.7961
2512.7925,99.7936
2513.7566,99.7938
2514.7209,99.7989
2515.6851,99.8089
2516.6494,99.8215
2517.6135,99.8328
2518.5779,99.8396
2519.5420,99.841
2520.5063,99.839
2521.4705,99.8373
2522.4348,99.839
2523.3989,99.8447
2524.3633,99.8528
2525.3274,99.8602
2526.2917,99.8648
2527.2559,99.8664
2528.2202,99.8669
2529.1843,99.8681
2530.1487,99.8709
2531.1128,99.8744
2532.0771,99.877
2533.0413,99.8772
2534.0056,99.8753
2534.9697,99.8728
2535.9341,99.8718
2536.8982,99.8737
2537.8625,99.8791
2538.8267,99.8876
2539.7910,99.8983
2540.7551,99.9098
2541.7195,99.9211
2542.6836,99.931
2543.6479,99.9389
2544.6121,99.9451
2545.5764,99.9502
2546.5405,99.9554
2547.5049,99.9613
2548.4690,99.9674
2549.4333,99.9728
2550.3975,99.9768
2551.3618,99.9794
2552.3259,99.9814
2553.2903,99.9843
2554.2544,99.9888
2555.2188,99.9952
2556.1829,100.003
2557.1472,100.012
2558.1113,100.021
2559.0757,100.03
2560.0398,100.039
2561.0042,100.046
2561.9683,100.05
2562.9326,100.052
2563.8967,100.052
2564.8611,100.051
2565.8252,100.052
2566.7896,100.057
2567.7537,100.063
2568.7180,100.071
2569.6821,100.078
2570.6465,100.083
2571.6106,100.085
2572.5750,100.084
2573.5391,100.082
2574.5034,100.081
2575.4675,100.081
2576.4319,100.084
2577.3960,100.089
2578.3604,100.095
2579.3245,100.101
2580.2888,100.107
2581.2529,100.112
2582.2173,100.117
2583.1814,100.12
2584.1458,100.121
2585.1099,100.119
2586.0742,100.114
2587.0383,100.107
2588.0027,100.1
2588.9668,100.095
2589.9312,100.093
2590.8953,100.095
2591.8596,100.099
2592.8237,100.105
2593.7881,100.111
2594.7522,100.117
2595.7166,100.122
2596.6807,100.125
2597.6450,100.126
2598.6091,100.126
2599.5735,100.126
2600.5376,100.127
2601.5020,100.129
2602.4661,100.132
2603.4304,100.135
2604.3945,100.137
2605.3589,100.139
2606.3230,100.141
2607.2874,100.146
2608.2515,100.153
2609.2158,100.162
2610.1799,100.172
2611.1443,100.179
2612.1084,100.183
2613.0728,100.184
2614.0369,100.184
2615.0012,100.182
2615.9653,100.182
2616.9297,100.183
2617.8938,100.187
2618.8582,100.194
2619.8223,100.2
2620.7866,100.206
2621.7507,100.208
2622.7151,100.206
2623.6792,100.203
2624.6436,100.199
2625.6077,100.197
2626.5720,100.2
2627.5361,100.204
2628.5005,100.209
2629.4646,100.213
2630.4290,100.214
2631.3931,100.214
2632.3574,100.215
2633.3215,100.217
2634.2859,100.221
2635.2500,100.226
2636.2144,100.23
2637.1785,100.233
2638.1428,100.235
2639.1069,100.239
2640.0713,100.245
2641.0354,100.253
2641.9998,100.263
2642.9639,100.271
2643.9282,100.276
2644.8923,100.277
2645.8567,100.275
2646.8208,100.273
2647.7852,100.272
2648.7493,100.272
2649.7136,100.273
2650.6777,100.274
2651.6421,100.276
2652.6062,100.281
2653.5706,100.29
2654.5347,100.304
2655.4990,100.32
2656.4631,100.335
2657.4275,100.347
2658.3916,100.354
2659.3560,100.36
2660.3201,100.366
2661.2844,100.375
2662.2485,100.386
2663.2129,100.4
2664.1770,100.415
2665.1414,100.43
2666.1055,100.445
2667.0698,100.46
2668.0339,100.474
2668.9983,100.487
2669.9624,100.499
2670.9268,100.509
2671.8909,100.517
2672.8552,100.525
2673.8193,100.532
2674.7837,100.54
2675.7478,100.547
2676.7122,100.553
2677.6763,100.557
2678.6406,100.558
2679.6047,100.557
2680.5691,100.554
2681.5332,100.552
2682.4976,100.553
2683.4617,100.557
2684.4260,100.563
2685.3901,100.569
2686.3545,100.573
2687.3186,100.575
2688.2830,100.577
2689.2471,100.579
2690.2114,100.583
2691.1755,100.59
2692.1399,100.598
2693.1040,100.606
2694.0684,100.613
2695.0325,100.618
2695.9968,100.624
2696.9609,100.629
2697.9253,100.634
2698.8894,100.639
2699.8538,100.643
2700.8179,100.643
2701.7822,100.642
2702.7463,100.64
2703.7107,100.638
2704.6748,100.635
2705.6392,100.631
2706.6033,100.625
2707.5676,100.615
2708.5317,100.602
2709.4961,100.59
2710.4602,100.581
2711.4246,100.577
2712.3887,100.576
2713.3530,100.577
2714.3171,100.576
2715.2815,100.572
2716.2456,100.564
2717.2100,100.553
2718.1741,100.543
2719.1384,100.534
2720.1025,100.528
2721.0669,100.526
2722.0310,100.524
2722.9954,100.522
2723.9595,100.518
2724.9238,100.512
2725.8879,100.504
2726.8523,100.497
2727.8164,100.491
2728.7808,100.487
2729.7449,100.485
2730.7092,100.485
2731.6733,100.484
2732.6377,100.481
2733.6018,100.477
2734.5662,100.469
2735.5303,100.459
2736.4946,100.447
2737.4587,100.434
2738.4231,100.423
2739.3872,100.416
2740.3516,100.413
2741.3157,100.417
2742.2800,100.425
2743.2441,100.437
2744.2085,100.448
2745.1726,100.457
2746.1370,100.461
2747.1011,100.46
2748.0654,100.455
2749.0295,100.448
2749.9939,100.442
2750.9580,100.44
2751.9224,100.44
2752.8865,100.441
2753.8508,100.441
2754.8149,100.438
2755.7793,100.429
2756.7434,100.416
2757.7078,100.401
2758.6719,100.386
2759.6362,100.373
2760.6003,100.364
2761.5647,100.356
2762.5288,100.348
2763.4932,100.338
2764.4573,100.324
2765.4216,100.309
2766.3857,100.293
2767.3501,100.279
2768.3142,100.268
2769.2786,100.259
2770.2427,100.248
2771.2070,100.233
2772.1711,100.211
2773.1355,100.182
2774.0996,100.148
2775.0640,100.113
2776.0281,100.083
2776.9924,100.056
2777.9565,100.031
2778.9209,100.004
2779.8850,99.9695
2780.8494,99.9276
2781.8135,99.8814
2782.7778,99.8362
2783.7419,99.7966
2784.7063,99.7638
2785.6704,99.7353
2786.6348,99.7071
2787.5989,99.6748
2788.5632,99.636
2789.5273,99.5914
2790.4917,99.544
2791.4558,99.4972
2792.4202,99.4536
2793.3843,99.4132
2794.3486,99.3738
2795.3127,99.3326
2796.2771,99.2872
2797.2412,99.2374
2798.2056,99.1843
2799.1697,99.1297
2800.1340,99.0742
2801.0981,99.0174
2802.0625,98.9582
2803.0266,98.8961
2803.9910,98.8317
2804.9551,98.7663
2805.9194,98.7003
2806.8835,98.6326
2807.8479,98.5602
2808.8120,98.4806
2809.7764,98.3926
2810.7405,98.2977
2811.7048,98.1984
2812.6689,98.0971
2813.6333,97.9939
2814.5974,97.8869
2815.5618,97.7731
2816.5259,97.6498
2817.4902,97.5151
2818.4543,97.3677
2819.4187,97.207
2820.3828,97.032
2821.3472,96.8425
2822.3113,96.6389
2823.2756,96.4225
2824.2397,96.1947
2825.2041,95.9561
2826.1682,95.706
2827.1326,95.4426
2828.0967,95.1636
2829.0610,94.868
2830.0251,94.5566
2830.9895,94.2328
2831.9536,93.9017
2832.9180,93.5691
2833.8821,93.2404
2834.8464,92.9191
2835.8105,92.6063
2836.7749,92.3017
2837.7390,92.0047
2838.7034,91.7158
2839.6675,91.4369
2840.6318,91.1692
2841.5959,90.9111
2842.5603,90.6571
2843.5244,90.3997
2844.4888,90.1347
2845.4529,89.8666
2846.4172,89.6102
2847.3813,89.3863
2848.3457,89.2128
2849.3098,89.0959
2850.2742,89.0263
2851.2383,88.9837
2852.2026,88.9455
2853.1667,88.8962
2854.1311,88.831
2855.0952,88.7533
2856.0596,88.6689
2857.0237,88.5803
2857.9880,88.4851
2858.9521,88.3781
2859.9165,88.2545
2860.8806,88.1126
2861.8450,87.9541
2862.8091,87.7832
2863.7734,87.6053
2864.7375,87.4262
2865.7019,87.2511
2866.6660,87.0839
2867.6304,86.9265
2868.5945,86.778
2869.5588,86.6361
2870.5229,86.4976
2871.4873,86.361
2872.4514,86.2264
2873.4158,86.0963
2874.3799,85.9739
2875.3442,85.8621
2876.3083,85.7616
2877.2727,85.6713
2878.2368,85.5882
2879.2012,85.51
2880.1653,85.437
2881.1296,85.3731
2882.0938,85.3248
2883.0581,85.2984
2884.0222,85.2965
2884.9866,85.3164
2885.9507,85.3498
2886.9150,85.386
2887.8792,85.4156
2888.8435,85.4338
2889.8076,85.4413
2890.7720,85.4439
2891.7361,85.4477
2892.7004,85.4542
2893.6646,85.4571
2894.6289,85.442
2895.5930,85.3928
2896.5574,85.2998
2897.5215,85.1674
2898.4858,85.0146
2899.4500,84.8683
2900.4143,84.7514
2901.3784,84.6731
2902.3428,84.626
2903.3069,84.591
2904.2712,84.5471
2905.2354,84.4793
2906.1997,84.3812
2907.1638,84.2531
2908.1282,84.0978
2909.0923,83.9184
2910.0566,83.7182
2911.0208,83.5017
2911.9851,83.2756
2912.9492,83.0491
2913.9136,82.8323
2914.8777,82.6344
2915.8420,82.4621
2916.8062,82.3176
2917.7705,82.1978
2918.7346,82.0954
2919.6990,82.001
2920.6631,81.9068
2921.6274,81.8087
2922.5916,81.7063
2923.5559,81.6014
2924.5200,81.4961
2925.4844,81.3918
2926.4485,81.2905
2927.4128,81.196
2928.3770,81.1139
2929.3413,81.0504
2930.3054,81.0099
2931.2698,80.9937
2932.2339,81.0009
2933.1982,81.0304
2934.1624,81.0826
2935.1267,81.1604
2936.0908,81.2675
2937.0552,81.4062
2938.0193,81.576
2938.9836,81.7739
2939.9478,81.9954
2940.9121,82.2362
2941.8762,82.493
2942.8406,82.7625
2943.8047,83.04
2944.7690,83.3186
2945.7332,83.5903
2946.6975,83.8478
2947.6616,84.087
2948.6260,84.3071
2949.5901,84.5103
2950.5544,84.6994
2951.5186,84.8765
2952.4829,85.0432
2953.4470,85.2007
2954.4114,85.3507
2955.3755,85.4961
2956.3398,85.6397
2957.3040,85.7839
2958.2683,85.9301
2959.2324,86.0784
2960.1968,86.2276
2961.1609,86.3751
2962.1252,86.5178
2963.0894,86.6527
2964.0537,86.7787
2965.0178,86.8971
2965.9822,87.0114
2966.9463,87.1266
2967.9106,87.2478
2968.8748,87.3794
2969.8391,87.5251
2970.8032,87.6872
2971.7676,87.8673
2972.7317,88.065
2973.6960,88.2785
2974.6602,88.5047
2975.6245,88.7404
2976.5886,88.9832
2977.5530,89.2316
2978.5171,89.4853
2979.4814,89.7436
2980.4456,90.0033
2981.4099,90.2574
2982.3740,90.4949
2983.3384,90.7046
2984.3025,90.8821
2985.2668,91.0365
2986.2310,91.1924
2987.1953,91.3826
2988.1594,91.6346
2989.1238,91.9553
2990.0879,92.3257
2991.0522,92.7074
2992.0164,93.0595
2992.9807,93.3559
2993.9448,93.594
2994.9092,93.7912
2995.8733,93.9721
2996.8376,94.1561
2997.8018,94.3504
2998.7661,94.5521
2999.7302,94.7547
3000.6946,94.9548
3001.6587,95.1541
3002.6230,95.3587
3003.5872,95.5747
3004.5515,95.8049
3005.5156,96.0462
3006.4800,96.2904
3007.4441,96.5267
3008.4084,96.7471
3009.3726,96.9494
3010.3369,97.1389
3011.3010,97.3251
3012.2654,97.5163
3013.2295,97.7144
3014.1938,97.914
3015.1580,98.1056
3016.1223,98.2814
3017.0864,98.4393
3018.0508,98.5824
3019.0149,98.7162
3019.9792,98.8447
3020.9434,98.9686
3021.9077,99.0862
3022.8718,99.1961
3023.8362,99.2985
3024.8003,99.3946
3025.7646,99.4846
3026.7288,99.5676
3027.6931,99.6419
3028.6572,99.7073
3029.6216,99.7663
3030.5857,99.8232
3031.5500,99.882
3032.5142,99.9434
3033.4785,100.005
3034.4426,100.065
3035.4070,100.12
3036.3711,100.17
3037.3354,100.185
3038.2996,100.191
3039.2639,100.191
3040.2280,100.182
3041.1924,100.16
3042.1565,100.126
3043.1208,100.082
3044.0850,100.032
3045.0493,99.9791
3046.0134,99.9273
3046.9778,99.8779
3047.9419,99.8301
3048.9063,99.7815
3049.8704,99.728
3050.8347,99.6661
3051.7988,99.5946
3052.7632,99.5157
3053.7273,99.435
3054.6917,99.3588
3055.6558,99.2928
3056.6201,99.2385
3057.5842,99.1931
3058.5486,99.1493
3059.5127,99.0979
3060.4771,99.0313
3061.4412,98.9466
3062.4055,98.8484
3063.3696,98.7478
3064.3340,98.6582
3065.2981,98.5892
3066.2625,98.5416
3067.2266,98.5078
3068.1909,98.4758
3069.1550,98.4358
3070.1194,98.3843
3071.0835,98.3233
3072.0479,98.2568
3073.0120,98.1873
3073.9763,98.1144
3074.9404,98.0365
3075.9048,97.9543
3076.8689,97.8717
3077.8333,97.7945
3078.7974,97.7271
3079.7617,97.6692
3080.7258,97.6155
3081.6902,97.5589
3082.6543,97.4942
3083.6187,97.4213
3084.5828,97.3447
3085.5471,97.2707
3086.5112,97.2036
3087.4756,97.1429
3088.4397,97.083
3089.4041,97.0162
3090.3682,96.9366
3091.3325,96.843
3092.2966,96.7394
3093.2610,96.6328
3094.2251,96.5294
3095.1895,96.432
3096.1536,96.3393
3097.1179,96.248
3098.0820,96.156
3099.0464,96.0637
3100.0105,95.9737
3100.9749,95.8883
3101.9390,95.8078
3102.9033,95.7299
3103.8674,95.6512
3104.8318,95.569
3105.7959,95.4823
3106.7603,95.3916
3107.7244,95.2979
3108.6887,95.2013
3109.6528,95.1016
3110.6172,94.9983
3111.5813,94.8919
3112.5457,94.7838
3113.5098,94.676
3114.4741,94.5701
3115.4382,94.4666
3116.4026,94.3653
3117.3667,94.2659
3118.3311,94.1688
3119.2952,94.0757
3120.2595,93.988
3121.2236,93.9062
3122.1880,93.8288
3123.1521,93.7528
3124.1165,93.6748
3125.0806,93.5922
3126.0449,93.5036
3127.0090,93.4085
3127.9734,93.3071
3128.9375,93.2007
3129.9019,93.0923
3130.8660,92.9865
3131.8303,92.8881
3132.7944,92.7992
3133.7588,92.7179
3134.7229,92.6387
3135.6873,92.5555
3136.6514,92.4648
3137.6157,92.3669
3138.5798,92.265
3139.5442,92.1626
3140.5083,92.0612
3141.4727,91.96
3142.4368,91.857
3143.4011,91.7503
3144.3652,91.6395
3145.3296,91.5259
3146.2937,91.4121
3147.2581,91.3022
3148.2222,91.1995
3149.1865,91.1057
3150.1506,91.019
3151.1150,90.9343
3152.0791,90.8456
3153.0435,90.7488
3154.0076,90.6439
3154.9719,90.5341
3155.9360,90.4241
3156.9004,90.3162
3157.8645,90.21
3158.8289,90.1034
3159.7930,89.9947
3160.7573,89.884
3161.7214,89.7736
3162.6858,89.6657
3163.6499,89.5613
3164.6143,89.4593
3165.5784,89.3578
3166.5427,89.2552
3167.5068,89.1513
3168.4712,89.047
3169.4353,88.9979
3170.3997,88.8928
3171.3638,88.7841
3172.3281,88.669
3173.2922,88.5463
3174.2566,88.4177
3175.2207,88.2881
3176.1851,88.1639
3177.1492,88.0508
3178.1135,87.9511
3179.0776,87.8631
3180.0420,87.7818
3181.0061,87.7017
3181.9705,87.6186
3182.9346,87.5302
3183.8989,87.4358
3184.8630,87.3349
3185.8274,87.228
3186.7915,87.1164
3187.7559,87.0029
3188.7200,86.891
3189.6843,86.7841
3190.6484,86.6831
3191.6128,86.5859
3192.5769,86.4886
3193.5413,86.3873
3194.5054,86.2808
3195.4697,86.1712
3196.4338,86.0627
3197.3982,85.9597
3198.3623,85.8643
3199.3267,85.7754
3200.2908,85.69
3201.2551,85.6052
3202.2192,85.5188
3203.1836,85.4296
3204.1477,85.3372
3205.1121,85.2408
3206.0762,85.1405
3207.0405,85.0374
3208.0046,84.9336
3208.9690,84.8316
3209.9331,84.7332
3210.8975,84.6382
3211.8616,84.5458
3212.8259,84.4553
3213.7900,84.3676
3214.7544,84.2845
3215.7185,84.2076
3216.6829,84.1363
3217.6470,84.0677
3218.6113,83.9978
3219.5754,83.923
3220.5398,83.8415
3221.5039,83.7544
3222.4683,83.664
3223.4324,83.5737
3224.3967,83.4859
3225.3608,83.4025
3226.3252,83.3237
3227.2893,83.249
3228.2537,83.1765
3229.2178,83.1045
3230.1821,83.0319
3231.1462,82.9584
3232.1106,82.8853
3233.0747,82.8137
3234.0391,82.7437
3235.0032,82.674
3235.9675,82.6018
3236.9316,82.5244
3237.8960,82.4409
3238.8601,82.3532
3239.8245,82.2655
3240.7886,82.183
3241.7529,82.1096
3242.7170,82.0466
3243.6814,81.9929
3244.6455,81.9454
3245.6099,81.9008
3246.5740,81.8555
3247.5383,81.8061
3248.5024,81.7489
3249.4668,81.6808
3250.4309,81.6005
3251.3953,81.5105
3252.3594,81.4175
3253.3237,81.3309
3254.2878,81.2591
3255.2522,81.2065
3256.2163,81.171
3257.1807,81.1458
3258.1448,81.1218
3259.1091,81.0905
3260.0732,81.0464
3261.0376,80.9879
3262.0017,80.917
3262.9661,80.8386
3263.9302,80.7581
3264.8945,80.6796
3265.8586,80.6047
3266.8230,80.5321
3267.7871,80.4591
3268.7515,80.3843
3269.7156,80.3094
3270.6799,80.2393
3271.6440,80.1805
3272.6084,80.1377
3273.5725,80.1105
3274.5369,80.0927
3275.5010,80.0749
3276.4653,80.0483
3277.4294,80.0086
3278.3938,79.9572
3279.3579,79.8999
3280.3223,79.8436
3281.2864,79.7934
3282.2507,79.7506
3283.2148,79.7128
3284.1792,79.675
3285.1433,79.6324
3286.1077,79.5818
3287.0718,79.5237
3288.0361,79.4614
3289.0002,79.4
3289.9646,79.3448
3290.9287,79.2992
3291.8931,79.2641
3292.8572,79.2387
3293.8215,79.2207
3294.7856,79.2072
3295.7500,79.1941
3296.7141,79.1759
3297.6785,79.1474
3298.6426,79.105
3299.6069,79.0491
3300.5710,78.9846
3301.5354,78.9183
3302.4995,78.8569
3303.4639,78.8047
3304.4280,78.7633
3305.3923,78.7329
3306.3564,78.7133
3307.3208,78.7041
3308.2849,78.703
3309.2493,78.7054
3310.2134,78.7046
3311.1777,78.6945
3312.1418,78.6719
3313.1062,78.6375
3314.0703,78.5956
3315.0347,78.5516
3315.9988,78.5105
3316.9631,78.475
3317.9272,78.4457
3318.8916,78.4212
3319.8557,78.3993
3320.8201,78.3777
3321.7842,78.3544
3322.7485,78.329
3323.7126,78.3025
3324.6770,78.2773
3325.6411,78.2564
3326.6055,78.2417
3327.5696,78.2333
3328.5339,78.228
3329.4980,78.22
3330.4624,78.2035
3331.4265,78.1752
3332.3909,78.1374
3333.3550,78.0978
3334.3193,78.0665
3335.2834,78.0514
3336.2478,78.0533
3337.2119,78.0656
3338.1763,78.0781
3339.1404,78.0829
3340.1047,78.0781
3341.0688,78.0674
3342.0332,78.0559
3342.9973,78.0466
3343.9617,78.0384
3344.9258,78.0283
3345.8901,78.0151
3346.8542,78.0011
3347.8186,77.9916
3348.7827,77.9918
3349.7471,78.003
3350.7112,78.022
3351.6755,78.042
3352.6396,78.056
3353.6040,78.0594
3354.5681,78.0511
3355.5325,78.0341
3356.4966,78.0138
3357.4609,77.9962
3358.4250,77.9859
3359.3894,77.9832
3360.3535,77.9848
3361.3179,77.9847
3362.2820,77.9785
3363.2463,77.966
3364.2104,77.9528
3365.1748,77.9479
3366.1389,77.9594
3367.1033,77.9895
3368.0674,78.0331
3369.0317,78.0801
3369.9958,78.1197
3370.9602,78.1454
3371.9243,78.1563
3372.8887,78.1564
3373.8528,78.1521
3374.8171,78.1499
3375.7813,78.1546
3376.7456,78.1689
3377.7097,78.1935
3378.6741,78.2274
3379.6382,78.2672
3380.6025,78.3083
3381.5667,78.3454
3382.5310,78.3739
3383.4951,78.392
3384.4595,78.4007
3385.4236,78.404
3386.3879,78.4075
3387.3521,78.4167
3388.3164,78.4354
3389.2805,78.4645
3390.2449,78.502
3391.2090,78.543
3392.1733,78.5826
3393.1375,78.6181
3394.1018,78.6512
3395.0659,78.6863
3396.0303,78.7281
3396.9944,78.777
3397.9587,78.8286
3398.9229,78.8759
3399.8872,78.9144
3400.8513,78.9456
3401.8157,78.9772
3402.7798,79.0182
3403.7441,79.0733
3404.7083,79.1403
3405.6726,79.2104
3406.6367,79.2735
3407.6011,79.3236
3408.5652,79.3616
3409.5295,79.394
3410.4937,79.4292
3411.4580,79.4727
3412.4221,79.5239
3413.3865,79.5772
3414.3506,79.6253
3415.3149,79.6633
3416.2791,79.6915
3417.2434,79.7163
3418.2075,79.7479
3419.1719,79.7959
3420.1360,79.8648
3421.1003,79.951
3422.0645,80.0441
3423.0288,80.1332
3423.9929,80.2115
3424.9573,80.2789
3425.9214,80.3408
3426.8857,80.404
3427.8499,80.4731
3428.8142,80.5482
3429.7783,80.6255
3430.7427,80.7005
3431.7068,80.7719
3432.6711,80.8427
3433.6353,80.9182
3434.5996,81.0026
3435.5637,81.0951
3436.5281,81.1903
3437.4922,81.2798
3438.4565,81.3564
3439.4207,81.4159
3440.3850,81.4581
3441.3491,81.4868
3442.3135,81.5087
3443.2776,81.534
3444.2419,81.5744
3445.2061,81.6413
3446.1704,81.7404
3447.1345,81.867
3448.0989,82.0068
3449.0630,82.1426
3450.0273,82.2625
3450.9915,82.3627
3451.9558,82.4454
3452.9199,82.5147
3453.8843,82.5745
3454.8484,82.6281
3455.8127,82.6793
3456.7769,82.7326
3457.7412,82.7922
3458.7053,82.8603
3459.6697,82.9359
3460.6338,83.0162
3461.5981,83.0986
3462.5623,83.1829
3463.5266,83.2717
3464.4907,83.3682
3465.4551,83.474
3466.4192,83.5867
3467.3835,83.6994
3468.3477,83.8037
3469.3120,83.893
3470.2761,83.9665
3471.2405,84.0301
3472.2046,84.0949
3473.1689,84.1718
3474.1331,84.266
3475.0974,84.3732
3476.0615,84.4812
3477.0259,84.5773
3477.9900,84.655
3478.9543,84.7182
3479.9185,84.7791
3480.8828,84.8511
3481.8469,84.9408
3482.8113,85.0433
3483.7754,85.1473
3484.7397,85.2437
3485.7039,85.3314
3486.6682,85.418
3487.6323,85.5131
3488.5967,85.6219
3489.5608,85.7398
3490.5251,85.8558
3491.4893,85.9594
3492.4536,86.0476
3493.4177,86.1259
3494.3821,86.2053
3495.3462,86.2938
3496.3105,86.3895
3497.2747,86.4818
3498.2390,86.5587
3499.2031,86.6172
3500.1675,86.6672
3501.1316,86.7299
3502.0959,86.8274
3503.0601,86.9657
3504.0244,87.1288
3504.9885,87.2898
3505.9529,87.43
3506.9170,87.547
3507.8813,87.6512
3508.8455,87.7578
3509.8098,87.878
3510.7739,88.0124
3511.7383,88.1531
3512.7024,88.2908
3513.6667,88.4207
3514.6309,88.5417
3515.5952,88.654
3516.5593,88.7563
3517.5237,88.8476
3518.4878,88.9288
3519.4521,89.004
3520.4163,89.0804
3521.3806,89.1645
3522.3447,89.2594
3523.3091,89.3624
3524.2732,89.4679
3525.2375,89.5735
3526.2017,89.6844
3527.1660,89.811
3528.1301,89.9603
3529.0945,90.1282
3530.0586,90.2996
3531.0229,90.4589
3531.9871,90.599
3532.9514,90.7244
3533.9155,90.8469
3534.8799,90.9797
3535.8440,91.129
3536.8083,91.289
3537.7725,91.4428
3538.7368,91.5718
3539.7009,91.6648
3540.6653,91.7224
3541.6294,91.7556
3542.5938,91.7855
3543.5579,91.8412
3544.5222,91.9501
3545.4863,92.1175
3546.4507,92.3168
3547.4148,92.5095
3548.3792,92.6742
3549.3433,92.8167
3550.3076,92.9581
3551.2717,93.1186
3552.2361,93.3044
3553.2002,93.5023
3554.1646,93.6883
3555.1287,93.8449
3556.0930,93.9692
3557.0571,94.0678
3558.0215,94.1482
3558.9856,94.2142
3559.9500,94.2671
3560.9141,94.308
3561.8784,94.3406
3562.8425,94.37
3563.8069,94.4035
3564.7710,94.4637
3565.7354,94.6002
3566.6995,94.8506
3567.6638,95.1664
3568.6279,95.4403
3569.5923,95.6156
3570.5564,95.7154
3571.5208,95.7891
3572.4849,95.8676
3573.4492,95.9564
3574.4133,96.0475
3575.3777,96.1335
3576.3418,96.2132
3577.3062,96.2898
3578.2703,96.3649
3579.2346,96.4361
3580.1987,96.4994
3581.1631,96.5547
3582.1272,96.6068
3583.0916,96.66
3584.0557,96.7108
3585.0200,96.755
3585.9841,96.8076
3586.9485,96.896
3587.9126,97.0104
3588.8770,97.0957
3589.8411,97.1185
3590.8054,97.097
3591.7695,97.0678
3592.7339,97.0544
3593.6980,97.0624
3594.6624,97.0852
3595.6265,97.1085
3596.5908,97.1218
3597.5549,97.1316
3598.5193,97.1614
3599.4834,97.2348
3600.4478,97.3555
3601.4119,97.5017
3602.3762,97.6439
3603.3403,97.7665
3604.3047,97.8714
3605.2688,97.9679
3606.2332,98.0673
3607.1973,98.1793
3608.1616,98.3002
3609.1257,98.4051
3610.0901,98.4632
3611.0542,98.4631
3612.0186,98.4201
3612.9829,98.3649
3613.9470,98.3263
3614.9114,98.3197
3615.8755,98.3455
3616.8398,98.3957
3617.8040,98.463
3618.7683,98.5379
3619.7324,98.5921
3620.6968,98.5844
3621.6609,98.5082
3622.6252,98.4141
3623.5894,98.3727
3624.5537,98.4234
3625.5178,98.5483
3626.4822,98.6894
3627.4463,98.8088
3628.4106,98.92
3629.3748,99.0117
3630.3391,99.0255
3631.3032,98.9625
3632.2676,98.8942
3633.2317,98.8839
3634.1960,98.9426
3635.1602,99.0383
3636.1245,99.1275
3637.0886,99.1834
3638.0530,99.2038
3639.0171,99.2008
3639.9814,99.1859
3640.9456,99.1665
3641.9099,99.151
3642.8740,99.1525
3643.8384,99.1788
3644.8025,99.2097
3645.7668,99.1826
3646.7310,99.0364
3647.6953,98.8507
3648.6594,98.8778
3649.6238,99.1716
3650.5879,99.4561
3651.5522,99.5621
3652.5164,99.5485
3653.4807,99.5169
3654.4448,99.5094
3655.4092,99.5145
3656.3733,99.5055
3657.3376,99.4681
3658.3018,99.4106
3659.2661,99.3589
3660.2302,99.3362
3661.1946,99.3439
3662.1587,99.3643
3663.1230,99.3822
3664.0872,99.4018
3665.0515,99.4361
3666.0156,99.4806
3666.9800,99.4979
3667.9441,99.4474
3668.9084,99.3438
3669.8726,99.2562
3670.8369,99.2311
3671.8010,99.2597
3672.7654,99.3044
3673.7295,99.3245
3674.6938,99.3131
3675.6580,99.3099
3676.6223,99.3298
3677.5864,99.3377
3678.5508,99.3211
3679.5149,99.3027
3680.4792,99.2961
3681.4434,99.293
3682.4077,99.2857
3683.3718,99.2857
3684.3362,99.3134
3685.3003,99.3661
3686.2646,99.395
3687.2288,99.3332
3688.1931,99.1808
3689.1572,99.0412
3690.1216,99.0001
3691.0857,99.0303
3692.0500,99.0745
3693.0142,99.1141
3693.9785,99.1539
3694.9426,99.1983
3695.9070,99.2492
3696.8711,99.3092
3697.8354,99.3793
3698.7996,99.4536
3699.7639,99.5204
3700.7280,99.5695
3701.6924,99.5957
3702.6565,99.5955
3703.6208,99.5712
3704.5850,99.5381
3705.5493,99.5174
3706.5134,99.5167
3707.4778,99.5207
3708.4419,99.514
3709.4063,99.5323
3710.3704,99.6692
3711.3347,99.9501
3712.2988,100.241
3713.2632,100.394
3714.2273,100.388
3715.1917,100.29
3716.1558,100.167
3717.1201,100.046
3718.0842,99.9252
3719.0486,99.7927
3720.0127,99.6474
3720.9771,99.5019
3721.9412,99.3741
3722.9055,99.2804
3723.8696,99.2316
3724.8340,99.2278
3725.7981,99.2561
3726.7625,99.2995
3727.7266,99.3513
3728.6909,99.4139
3729.6550,99.4815
3730.6194,99.5261
3731.5835,99.5061
3732.5479,99.4076
3733.5120,99.3
3734.4763,99.3122
3735.4404,99.4725
3736.4048,99.6435
3737.3689,99.7094
3738.3333,99.7093
3739.2974,99.7657
3740.2617,99.9696
3741.2258,100.329
3742.1902,100.716
3743.1543,100.963
3744.1187,100.956
3745.0828,100.72
3746.0471,100.378
3747.0112,100.062
3747.9756,99.8496
3748.9397,99.7681
3749.9041,99.8351
3750.8682,100.03
3751.8325,100.213
3752.7966,100.241
3753.7610,100.126
3754.7251,99.9747
3755.6895,99.8665
3756.6536,99.8255
3757.6179,99.8439
3758.5820,99.904
3759.5464,99.9775
3760.5105,100.034
3761.4749,100.063
3762.4390,100.075
3763.4033,100.084
3764.3674,100.097
3765.3318,100.11
3766.2959,100.121
3767.2603,100.128
3768.2244,100.14
3769.1887,100.161
3770.1528,100.19
3771.1172,100.211
3772.0813,100.209
3773.0457,100.188
3774.0098,100.166
3774.9741,100.156
3775.9382,100.157
3776.9026,100.156
3777.8667,100.149
3778.8311,100.138
3779.7952,100.116
3780.7595,100.074
3781.7236,100.013
3782.6880,99.9517
3783.6521,99.9173
3784.6165,99.9291
3785.5806,99.9874
3786.5449,100.072
3787.5090,100.154
3788.4734,100.215
3789.4375,100.254
3790.4019,100.278
3791.3660,100.294
3792.3303,100.289
3793.2944,100.244
3794.2588,100.148
3795.2229,100.024
3796.1873,99.9155
3797.1514,99.8645
3798.1157,99.8773
3799.0798,99.9228
3800.0442,99.9611
3801.0083,99.975
3801.9727,99.972
3802.9368,99.9719
3803.9011,100.002
3804.8652,100.08
3805.8296,100.194
3806.7937,100.294
3807.7581,100.322
3808.7222,100.261
3809.6865,100.161
3810.6506,100.104
3811.6150,100.138
3812.5791,100.24
3813.5435,100.329
3814.5076,100.324
3815.4719,100.214
3816.4360,100.054
3817.4004,99.9159
3818.3645,99.845
3819.3289,99.8525
3820.2930,99.9174
3821.2573,99.9824
3822.2214,99.9799
3823.1858,99.8925
3824.1499,99.7695
3825.1143,99.6791
3826.0784,99.6614
3827.0427,99.715
3828.0068,99.8082
3828.9712,99.9006
3829.9353,99.9634
3830.8997,99.989
3831.8638,99.9892
3832.8281,99.9832
3833.7922,99.9808
3834.7566,99.9728
3835.7207,99.9354
3836.6851,99.8545
3837.6492,99.7486
3838.6135,99.6592
3839.5776,99.616
3840.5420,99.626
3841.5061,99.6832
3842.4705,99.7693
3843.4346,99.8476
3844.3989,99.8744
3845.3630,99.8309
3846.3274,99.7464
3847.2915,99.6906
3848.2559,99.7365
3849.2200,99.9152
3850.1843,100.184
3851.1484,100.439
3852.1128,100.61
3853.0769,100.723
3854.0413,100.741
3855.0054,100.561
3855.9697,100.236
3856.9338,99.9277
3857.8982,99.7487
3858.8623,99.71
3859.8267,99.7487
3860.7908,99.777
3861.7551,99.7433
3862.7192,99.6703
3863.6836,99.6259
3864.6477,99.6516
3865.6121,99.734
3866.5762,99.83
3867.5405,99.8935
3868.5046,99.8953
3869.4690,99.8415
3870.4331,99.773
3871.3975,99.732
3872.3616,99.7289
3873.3259,99.7485
3874.2900,99.7777
3875.2544,99.8147
3876.2185,99.8585
3877.1829,99.8974
3878.1470,99.9103
3879.1113,99.8863
3880.0754,99.8417
3881.0398,99.8143
3882.0039,99.8362
3882.9683,99.9134
3883.9324,100.023
3884.8967,100.122
3885.8608,100.17
3886.8252,100.154
3887.7893,100.088
3888.7537,100.001
3889.7178,99.9159
3890.6821,99.8449
3891.6462,99.799
3892.6106,99.7758
3893.5747,99.7648
3894.5391,99.769
3895.5032,99.8007
3896.4675,99.8557
3897.4316,99.9068
3898.3960,99.9266
3899.3601,99.9108
3900.3245,99.8755
3901.2886,99.8374
3902.2529,99.8069
3903.2170,99.7919
3904.1814,99.7923
3905.1455,99.7967
3906.1099,99.7965
3907.0740,99.7966
3908.0383,99.8061
3909.0024,99.8261
3909.9668,99.8483
3910.9309,99.8627
3911.8953,99.8656
3912.8594,99.8602
3913.8237,99.8518
3914.7878,99.8443
3915.7522,99.8414
3916.7163,99.8462
3917.6807,99.8533
3918.6448,99.8463
3919.6091,99.8102
3920.5732,99.7472
3921.5376,99.6744
3922.5017,99.6136
3923.4661,99.5802
3924.4302,99.5757
3925.3945,99.5844
3926.3586,99.5863
3927.3230,99.5712
3928.2871,99.543
3929.2515,99.5145
3930.2156,99.5041
3931.1799,99.5285
3932.1440,99.5882
3933.1084,99.6621
3934.0725,99.724
3935.0369,99.7612
3936.0010,99.7763
3936.9653,99.7768
3937.9294,99.7676
3938.8938,99.7486
3939.8579,99.7202
3940.8223,99.6877
3941.7864,99.6611
3942.7507,99.6478
3943.7148,99.6457
3944.6792,99.645
3945.6433,99.6357
3946.6077,99.6129
3947.5718,99.58
3948.5361,99.5485
3949.5002,99.5312
3950.4646,99.5332
3951.4287,99.5508
3952.3931,99.5759
3953.3572,99.6019
3954.3215,99.6242
3955.2856,99.6401
3956.2500,99.6482
3957.2141,99.6482
3958.1785,99.6418
3959.1426,99.6337
3960.1069,99.6319
3961.0710,99.6443
3962.0354,99.6742
3962.9995,99.7157
3963.9639,99.7559
3964.9280,99.7808
3965.8923,99.7816
3966.8564,99.7575
3967.8208,99.7156
3968.7849,99.6671
3969.7493,99.6231
3970.7134,99.591
3971.6777,99.5742
3972.6418,99.5725
3973.6062,99.5832
3974.5703,99.6016
3975.5347,99.6216
3976.4988,99.6382
3977.4631,99.6485
3978.4272,99.6528
3979.3916,99.6531
3980.3557,99.6509
3981.3201,99.6461
3982.2842,99.6374
3983.2485,99.6237
3984.2126,99.606
3985.1770,99.5874
3986.1411,99.5718
3987.1055,99.5611
3988.0696,99.5531
3989.0339,99.5425
3989.9980,99.524
3990.9624,99.497
3991.9265,99.4677
3992.8909,99.4473
3993.8550,99.4453
3994.8193,99.4636
3995.7834,99.4941
3996.7478,99.5226
3997.7119,99.5378
3998.6763,99.5377
3999.6404,99.5299
4000.6047,99.3206

##### Extended Information
[Comments]
Sample name
Comment
User
Division
Company,HANKYONG

[Detailed Information]
Creation date,4/24/2024 11:44 AM

Data array type,Linear data array
Horizontal axis,Wavenumber [cm-1]
Vertical axis,%T
Start,649.893 cm-1
End,4000.6 cm-1
Data interval,0.964233 cm-1
Data points,3476    

[Measurement Information]
Model Name,FT/IR-4700typeA
Serial Number,D056761788

Accessory,ATR PRO ONE
Accessory S/N,C174761809
Incident angle,45 deg

Measurement Date,4/24/2024 11:44 AM

Light Source,Standard
Detector,TGS
Accumulation,32
Resolution,4 cm-1
Zero Filling,On
Apodization,Cosine
Gain,Auto (4)
Aperture,Auto (7.1 mm)
Scanning Speed,Auto (2 mm/sec)
Filter,Auto (30000 Hz)

