TITLE,
DATA TYPE,INFRARED SPECTRUM
ORIGIN,JASCO
OWNER,
DATE,24/04/24
TIME,10:39:54
SPECTROMETER/DATA SYSTEM,
LOCALE,1033
RESOLUTION,
DELTAX,0.964233
XUNITS,1/CM
YUNITS,TRANSMITTANCE
FIRSTX,  649.8934
LASTX, 4000.6047
NPOINTS,    3476
FIRSTY,    98.28551
MAXY,   101.93497
MINY,    53.33151
XYDATA
649.8934,98.2855
650.8576,98.2437
651.8218,98.2009
652.7861,98.1518
653.7503,98.0874
654.7145,98.0096
655.6788,97.9249
656.6430,97.8409
657.6072,97.7697
658.5715,97.7335
659.5357,97.7595
660.4999,97.8574
661.4642,97.9969
662.4284,98.1132
663.3926,98.1376
664.3569,98.0233
665.3211,97.7539
666.2853,97.3606
667.2496,96.9688
668.2138,96.8006
669.1780,96.9659
670.1423,97.2948
671.1065,97.5722
672.0707,97.7288
673.0350,97.7924
673.9992,97.8145
674.9634,97.841
675.9277,97.9022
676.8919,98.0119
677.8561,98.1722
678.8204,98.3801
679.7846,98.6281
680.7488,98.8993
681.7131,99.1678
682.6773,99.41
683.6415,99.6178
684.6058,99.8026
685.5700,99.9831
686.5342,100.167
687.4985,100.339
688.4627,100.469
689.4269,100.522
690.3912,100.483
691.3554,100.376
692.3196,100.281
693.2839,100.312
694.2481,100.528
695.2123,100.875
696.1766,101.236
697.1408,101.517
698.1050,101.67
699.0693,101.69
700.0335,101.605
700.9977,101.465
701.9620,101.323
702.9262,101.218
703.8904,101.171
704.8547,101.18
705.8189,101.225
706.7831,101.277
707.7474,101.307
708.7116,101.301
709.6758,101.259
710.6401,101.195
711.6043,101.119
712.5685,101.03
713.5328,100.914
714.4970,100.751
715.4612,100.746
716.4255,100.473
717.3897,100.213
718.3539,100.035
719.3182,99.994
720.2824,100.106
721.2466,100.337
722.2109,100.618
723.1751,100.885
724.1393,101.101
725.1036,101.259
726.0678,101.373
727.0320,101.464
727.9963,101.546
728.9605,101.623
729.9247,101.693
730.8890,101.746
731.8532,101.769
732.8174,101.744
733.7817,101.652
734.7459,101.477
735.7101,101.206
736.6744,100.833
737.6386,100.36
738.6028,99.8007
739.5671,99.1832
740.5313,98.5475
741.4955,97.9403
742.4598,97.4044
743.4240,96.9713
744.3882,96.6559
745.3525,96.4583
746.3167,96.3672
747.2809,96.3655
748.2452,96.4339
749.2094,96.5541
750.1736,96.7106
751.1379,96.8911
752.1021,97.0861
753.0663,97.2873
754.0306,97.4862
754.9948,97.6737
755.9590,97.8404
756.9233,97.9775
757.8875,98.0772
758.8517,98.1339
759.8160,98.1475
760.7802,98.1269
761.7444,98.0926
762.7087,98.0743
763.6729,98.1033
764.6371,98.2043
765.6014,98.3888
766.5656,98.6553
767.5298,98.9929
768.4941,99.3857
769.4583,99.8144
770.4225,100.255
771.3868,100.68
772.3510,101.06
773.3152,101.373
774.2795,101.61
775.2437,101.773
776.2079,101.875
777.1722,101.927
778.1364,101.935
779.1006,101.897
780.0649,101.808
781.0291,101.669
781.9933,101.488
782.9576,101.285
783.9218,101.088
784.8860,100.923
785.8503,100.806
786.8145,100.738
787.7787,100.702
788.7430,100.674
789.7072,100.629
790.6714,100.556
791.6357,100.459
792.5999,100.349
793.5641,100.241
794.5284,100.142
795.4926,100.049
796.4568,99.9547
797.4211,99.852
798.3853,99.737
799.3495,99.6091
800.3138,99.4678
801.2780,99.3107
802.2422,99.134
803.2065,98.9347
804.1707,98.7129
805.1349,98.4715
806.0992,98.2153
807.0634,97.9491
808.0276,97.6774
808.9919,97.4044
809.9561,97.135
810.9203,96.8747
811.8846,96.63
812.8488,96.4081
813.8130,96.217
814.7773,96.0645
815.7415,95.9563
816.7057,95.8928
817.6700,95.8687
818.6342,95.8733
819.5984,95.895
820.5627,95.9251
821.5269,95.9608
822.4911,96.0043
823.4554,96.0598
824.4196,96.1301
825.3839,96.2141
826.3481,96.3075
827.3123,96.4038
828.2766,96.4957
829.2408,96.5749
830.2050,96.6318
831.1693,96.6558
832.1335,96.6377
833.0977,96.572
834.0620,96.459
835.0262,96.3051
835.9904,96.1198
836.9547,95.9127
837.9189,95.6901
838.8831,95.4544
839.8474,95.2047
840.8116,94.9392
841.7758,94.6566
842.7401,94.3577
843.7043,94.0456
844.6685,93.726
845.6328,93.4067
846.5970,93.0965
847.5612,92.8047
848.5255,92.5379
849.4897,92.2997
850.4539,92.0901
851.4182,91.9076
852.3824,91.7512
853.3466,91.6217
854.3109,91.5205
855.2751,91.4472
856.2393,91.3973
857.2036,91.3629
858.1678,91.3357
859.1320,91.3113
860.0963,91.2916
861.0605,91.284
862.0247,91.2984
862.9890,91.3435
863.9532,91.4254
864.9174,91.5459
865.8817,91.7025
866.8459,91.8885
867.8101,92.0942
868.7744,92.3112
869.7386,92.5352
870.7028,92.7664
871.6671,93.0033
872.6313,93.2346
873.5955,93.436
874.5598,93.5763
875.5240,93.6333
876.4882,93.609
877.4525,93.5328
878.4167,93.4496
879.3809,93.398
880.3452,93.3933
881.3094,93.4252
882.2736,93.4704
883.2379,93.5081
884.2021,93.5291
885.1663,93.5326
886.1306,93.5182
887.0948,93.4824
888.0590,93.4237
889.0233,93.3514
889.9875,93.2892
890.9517,93.2675
891.9160,93.3092
892.8802,93.4177
893.8444,93.5746
894.8087,93.7495
895.7729,93.9129
896.7371,94.0467
897.7014,94.1454
898.6656,94.2126
899.6298,94.2557
900.5941,94.2819
901.5583,94.2975
902.5225,94.308
903.4868,94.317
904.4510,94.3258
905.4152,94.3318
906.3795,94.329
907.3437,94.3094
908.3079,94.2656
909.2722,94.1942
910.2364,94.0976
911.2006,93.9851
912.1649,93.8718
913.1291,93.7744
914.0933,93.7074
915.0576,93.6796
916.0218,93.693
916.9860,93.7441
917.9503,93.8269
918.9145,93.9358
919.8787,94.0678
920.8430,94.2236
921.8072,94.4063
922.7714,94.6187
923.7357,94.8608
924.6999,95.1268
925.6641,95.407
926.6284,95.6912
927.5926,95.9741
928.5568,96.2591
929.5211,96.5566
930.4853,96.8784
931.4495,97.2299
932.4138,97.6069
933.3780,97.9959
934.3422,98.3803
935.3065,98.7465
936.2707,99.0865
937.2349,99.3965
938.1992,99.6734
939.1634,99.9128
940.1276,100.11
941.0919,100.265
942.0561,100.383
943.0203,100.472
943.9846,100.542
944.9488,100.599
945.9130,100.641
946.8773,100.659
947.8415,100.644
948.8057,100.592
949.7700,100.501
950.7342,100.376
951.6984,100.22
952.6627,100.038
953.6269,99.8317
954.5911,99.5991
955.5554,99.3358
956.5196,99.0614
957.4838,98.8343
958.4481,98.5616
959.4123,98.2433
960.3765,97.8841
961.3408,97.4926
962.3050,97.0805
963.2692,96.6609
964.2335,96.2462
965.1977,95.8468
966.1619,95.4697
967.1262,95.1192
968.0904,94.797
969.0546,94.5036
970.0189,94.2385
970.9831,93.9991
971.9473,93.7799
972.9116,93.5718
973.8758,93.3639
974.8400,93.1455
975.8043,92.9087
976.7685,92.6492
977.7327,92.3643
978.6970,92.0515
979.6612,91.7069
980.6254,91.3256
981.5897,90.9038
982.5539,90.4406
983.5181,89.9389
984.4824,89.406
985.4466,88.853
986.4108,88.2947
987.3751,87.7498
988.3393,87.2391
989.3035,86.7826
990.2678,86.3945
991.2320,86.0794
992.1962,85.8303
993.1605,85.6312
994.1247,85.4625
995.0889,85.3078
996.0532,85.1566
997.0174,85.0031
997.9816,84.8412
998.9459,84.6607
999.9101,84.446
1000.8743,84.1796
1001.8386,83.8469
1002.8028,83.4403
1003.7670,82.9582
1004.7313,82.4024
1005.6955,81.7757
1006.6597,81.0799
1007.6240,80.3164
1008.5882,79.4851
1009.5524,78.5852
1010.5167,77.6152
1011.4809,76.5766
1012.4451,75.4771
1013.4094,74.3311
1014.3736,73.1559
1015.3378,71.9651
1016.3021,70.7654
1017.2663,69.5593
1018.2305,68.3499
1019.1948,67.143
1020.1590,65.9405
1021.1232,64.7316
1022.0875,63.4914
1023.0517,62.1969
1024.0160,60.8528
1024.9802,59.5099
1025.9445,58.2596
1026.9087,57.1992
1027.8729,56.3867
1028.8372,55.8123
1029.8014,55.4036
1030.7656,55.0632
1031.7299,54.7146
1032.6941,54.333
1033.6583,53.9463
1034.6226,53.6138
1035.5868,53.3959
1036.5510,53.3315
1037.5153,53.4269
1038.4795,53.6571
1039.4437,53.9748
1040.4080,54.3253
1041.3722,54.663
1042.3364,54.9643
1043.3007,55.2311
1044.2649,55.4843
1045.2291,55.7504
1046.1934,56.0502
1047.1576,56.3961
1048.1218,56.7964
1049.0861,57.2585
1050.0503,57.7865
1051.0145,58.3729
1051.9788,58.994
1052.9430,59.6176
1053.9072,60.2234
1054.8715,60.8245
1055.8357,61.4731
1056.7999,62.2376
1057.7642,63.1578
1058.7284,64.2004
1059.6926,65.2469
1060.6569,66.1289
1061.6211,66.7022
1062.5853,66.9243
1063.5496,66.8881
1064.5138,66.7889
1065.4780,66.8352
1066.4423,67.1496
1067.4065,67.7122
1068.3707,68.3787
1069.3350,68.9581
1070.2992,69.3044
1071.2634,69.3733
1072.2277,69.219
1073.1919,68.9467
1074.1561,68.6544
1075.1204,68.3985
1076.0846,68.1922
1077.0488,68.0269
1078.0131,67.8936
1078.9773,67.7929
1079.9415,67.7319
1080.9058,67.7166
1081.8700,67.7453
1082.8342,67.8081
1083.7985,67.8892
1084.7627,67.9726
1085.7269,68.048
1086.6912,68.1163
1087.6554,68.1897
1088.6196,68.2839
1089.5839,68.4063
1090.5481,68.546
1091.5123,68.6734
1092.4766,68.7526
1093.4408,68.7588
1094.4050,68.6906
1095.3693,68.5698
1096.3335,68.4304
1097.2977,68.3033
1098.2620,68.208
1099.2262,68.1525
1100.1904,68.1405
1101.1547,68.178
1102.1189,68.2741
1103.0831,68.4378
1104.0474,68.6737
1105.0116,68.9807
1105.9758,69.3551
1106.9401,69.7953
1107.9043,70.3046
1108.8685,70.8908
1109.8328,71.5625
1110.7970,72.3255
1111.7612,73.1801
1112.7255,74.1206
1113.6897,75.1371
1114.6539,76.2176
1115.6182,77.35
1116.5824,78.5244
1117.5466,79.7349
1118.5109,80.9809
1119.4751,82.2651
1120.4393,83.5914
1121.4036,84.9598
1122.3678,86.3633
1123.3320,87.7868
1124.2963,89.2093
1125.2605,90.6076
1126.2247,91.9596
1127.1890,93.2467
1128.1532,94.4526
1129.1174,95.5629
1130.0817,96.5628
1131.0459,97.4379
1132.0101,98.1754
1132.9744,98.7656
1133.9386,99.2032
1134.9028,99.4567
1135.8671,99.4659
1136.8313,99.3333
1137.7955,99.0684
1138.7598,98.682
1139.7240,98.186
1140.6882,97.5939
1141.6525,96.9204
1142.6167,96.1812
1143.5809,95.3936
1144.5452,94.5775
1145.5094,93.7563
1146.4736,92.9563
1147.4379,92.2044
1148.4021,91.5249
1149.3663,90.9354
1150.3306,90.4454
1151.2948,90.0552
1152.2590,89.757
1153.2233,89.5352
1154.1875,89.3674
1155.1517,89.2258
1156.1160,89.0811
1157.0802,88.9064
1158.0444,88.6821
1159.0087,88.3974
1159.9729,88.0488
1160.9371,87.6383
1161.9014,87.1704
1162.8656,86.6521
1163.8298,86.0931
1164.7941,85.5055
1165.7583,84.9026
1166.7225,84.2959
1167.6868,83.6935
1168.6510,83.1006
1169.6152,82.5202
1170.5795,81.9552
1171.5437,81.4083
1172.5079,80.88
1173.4722,80.3679
1174.4364,79.8663
1175.4006,79.3681
1176.3649,78.8676
1177.3291,78.3618
1178.2933,77.851
1179.2576,77.3369
1180.2218,76.823
1181.1860,76.3136
1182.1503,75.8135
1183.1145,75.3278
1184.0787,74.859
1185.0430,74.4058
1186.0072,73.9625
1186.9714,73.5221
1187.9357,73.0788
1188.8999,72.6313
1189.8641,72.1832
1190.8284,71.7406
1191.7926,71.309
1192.7568,70.892
1193.7211,70.4905
1194.6853,70.1047
1195.6495,69.7345
1196.6138,69.3808
1197.5780,69.0445
1198.5422,68.7266
1199.5065,68.4319
1200.4707,68.1529
1201.4349,67.8959
1202.3992,67.6638
1203.3634,67.46
1204.3276,67.2877
1205.2919,67.1494
1206.2561,67.046
1207.2203,66.9766
1208.1846,66.9391
1209.1488,66.9307
1210.1130,66.9489
1211.0773,66.9918
1212.0415,67.0576
1213.0057,67.1452
1213.9700,67.2534
1214.9342,67.3825
1215.8984,67.5333
1216.8627,67.7067
1217.8269,67.9017
1218.7911,68.1145
1219.7554,68.3387
1220.7196,68.5677
1221.6838,68.7966
1222.6481,69.0227
1223.6123,69.2439
1224.5765,69.4574
1225.5408,69.6589
1226.5050,69.8445
1227.4692,70.0119
1228.4335,70.1611
1229.3977,70.2939
1230.3619,70.4142
1231.3262,70.529
1232.2904,70.6485
1233.2546,70.7817
1234.2189,70.9287
1235.1831,71.0727
1236.1473,71.1814
1237.1116,71.2212
1238.0758,71.1802
1239.0400,71.0839
1240.0043,70.9911
1240.9685,70.9682
1241.9327,71.0534
1242.8970,71.234
1243.8612,71.4508
1244.8254,71.6298
1245.7897,71.7202
1246.7539,71.7163
1247.7181,71.6518
1248.6824,71.5734
1249.6466,71.5128
1250.6108,71.4737
1251.5751,71.437
1252.5393,71.3775
1253.5035,71.2783
1254.4678,71.1377
1255.4320,70.9654
1256.3962,70.7774
1257.3605,70.5918
1258.3247,70.4272
1259.2889,70.3019
1260.2532,70.2311
1261.2174,70.2236
1262.1816,70.2798
1263.1459,70.3929
1264.1101,70.5521
1265.0743,70.7449
1266.0386,70.9591
1267.0028,71.1832
1267.9670,71.4069
1268.9313,71.6229
1269.8955,71.8284
1270.8597,72.0253
1271.8240,72.2198
1272.7882,72.4207
1273.7524,72.6369
1274.7167,72.8748
1275.6809,73.1375
1276.6451,73.4242
1277.6094,73.7306
1278.5736,74.0497
1279.5378,74.3735
1280.5021,74.694
1281.4663,75.0054
1282.4305,75.3049
1283.3948,75.5933
1284.3590,75.8742
1285.3232,76.153
1286.2875,76.4348
1287.2517,76.723
1288.2159,77.0177
1289.1802,77.3163
1290.1444,77.6149
1291.1086,77.9103
1292.0729,78.2017
1293.0371,78.4911
1294.0013,78.7821
1294.9656,79.0784
1295.9298,79.3813
1296.8940,79.6886
1297.8583,79.9947
1298.8225,80.2916
1299.7867,80.5708
1300.7510,80.8256
1301.7152,81.0519
1302.6794,81.25
1303.6437,81.4233
1304.6079,81.5768
1305.5721,81.7148
1306.5364,81.8392
1307.5006,81.9495
1308.4648,82.0446
1309.4291,82.1252
1310.3933,82.1948
1311.3575,82.2584
1312.3218,82.32
1313.2860,82.3809
1314.2502,82.4393
1315.2145,82.4935
1316.1787,82.5445
1317.1429,82.5959
1318.1072,82.6519
1319.0714,82.7128
1320.0356,82.7735
1320.9999,82.8255
1321.9641,82.8619
1322.9283,82.8809
1323.8926,82.8867
1324.8568,82.8871
1325.8210,82.8905
1326.7853,82.903
1327.7495,82.9276
1328.7137,82.9654
1329.6780,83.0168
1330.6422,83.0806
1331.6064,83.1529
1332.5707,83.2255
1333.5349,83.2875
1334.4991,83.3302
1335.4634,83.353
1336.4276,83.3668
1337.3918,83.3937
1338.3561,83.4566
1339.3203,83.5616
1340.2845,83.6875
1341.2488,83.7975
1342.2130,83.8625
1343.1772,83.8721
1344.1415,83.8312
1345.1057,83.7515
1346.0699,83.6462
1347.0342,83.5278
1347.9984,83.4052
1348.9626,83.2828
1349.9269,83.1602
1350.8911,83.0344
1351.8553,82.9041
1352.8196,82.7722
1353.7838,82.6455
1354.7480,82.5314
1355.7123,82.4318
1356.6765,82.3412
1357.6407,82.251
1358.6050,82.1571
1359.5692,82.0659
1360.5334,81.9963
1361.4977,81.9725
1362.4619,82.005
1363.4261,82.0764
1364.3904,82.1536
1365.3546,82.2119
1366.3188,82.2446
1367.2831,82.2552
1368.2473,82.2474
1369.2115,82.2201
1370.1758,82.1694
1371.1400,82.0944
1372.1042,82.0029
1373.0685,81.913
1374.0327,81.8472
1374.9969,81.8183
1375.9612,81.8224
1376.9254,81.8484
1377.8896,81.8948
1378.8539,81.9723
1379.8181,82.093
1380.7823,82.2569
1381.7466,82.4488
1382.7108,82.6527
1383.6750,82.8702
1384.6393,83.1259
1385.6035,83.4472
1386.5677,83.8202
1387.5320,84.1561
1388.4962,84.3298
1389.4604,84.2668
1390.4247,83.9837
1391.3889,83.5647
1392.3531,83.1335
1393.3174,82.8333
1394.2816,82.784
1395.2458,83.0059
1396.2101,83.3762
1397.1743,83.6957
1398.1385,83.8174
1399.1028,83.7146
1400.0670,83.4491
1401.0313,83.103
1401.9955,82.7365
1402.9597,82.3829
1403.9240,82.0647
1404.8882,81.8034
1405.8524,81.6147
1406.8167,81.4974
1407.7809,81.4359
1408.7451,81.4144
1409.7094,81.426
1410.6736,81.4665
1411.6378,81.5239
1412.6021,81.576
1413.5663,81.6009
1414.5305,81.589
1415.4948,81.5452
1416.4590,81.4844
1417.4232,81.4263
1418.3875,81.3821
1419.3517,81.3354
1420.3159,81.2516
1421.2802,81.112
1422.2444,80.9257
1423.2086,80.714
1424.1729,80.4964
1425.1371,80.2858
1426.1013,80.0873
1427.0656,79.9014
1428.0298,79.7271
1428.9940,79.5649
1429.9583,79.4158
1430.9225,79.2788
1431.8867,79.1487
1432.8510,79.018
1433.8152,78.8759
1434.7794,78.7102
1435.7437,78.5136
1436.7079,78.2896
1437.6721,78.0445
1438.6364,77.7788
1439.6006,77.4942
1440.5648,77.1989
1441.5291,76.9031
1442.4933,76.6142
1443.4575,76.3327
1444.4218,76.0514
1445.3860,75.7585
1446.3502,75.4443
1447.3145,75.1109
1448.2787,74.7733
1449.2429,74.451
1450.2072,74.1566
1451.1714,73.894
1452.1356,73.6636
1453.0999,73.4643
1454.0641,73.2949
1455.0283,73.1657
1455.9926,73.1269
1456.9568,73.2428
1457.9210,73.4484
1458.8853,73.5773
1459.8495,73.5814
1460.8137,73.5328
1461.7780,73.5328
1462.7422,73.6871
1463.7064,74.0972
1464.6707,74.7945
1465.6349,75.6643
1466.5991,76.514
1467.5634,77.2369
1468.5276,77.8552
1469.4918,78.4571
1470.4561,79.1457
1471.4203,80.0097
1472.3845,81.0572
1473.3488,82.1247
1474.3130,82.9584
1475.2772,83.4429
1476.2415,83.6338
1477.2057,83.6352
1478.1699,83.5352
1479.1342,83.4093
1480.0984,83.3303
1481.0626,83.3589
1482.0269,83.5202
1482.9911,83.7915
1483.9553,84.1172
1484.9196,84.4388
1485.8838,84.7148
1486.8480,84.927
1487.8123,85.0826
1488.7765,85.2059
1489.7407,85.303
1490.7050,85.3431
1491.6692,85.2993
1492.6334,85.1747
1493.5977,84.9816
1494.5619,84.7178
1495.5261,84.3648
1496.4904,83.9089
1497.4546,83.37
1498.4188,82.7988
1499.3831,82.2402
1500.3473,81.7208
1501.3115,81.26
1502.2758,80.8713
1503.2400,80.551
1504.2042,80.2692
1505.1685,79.9788
1506.1327,79.6809
1507.0969,79.4862
1508.0612,79.433
1509.0254,79.3792
1509.9896,79.2416
1510.9539,79.0439
1511.9181,78.841
1512.8823,78.7009
1513.8466,78.7128
1514.8108,78.9714
1515.7750,79.5258
1516.7393,80.3407
1517.7035,81.3401
1518.6677,82.5053
1519.6320,83.9041
1520.5962,85.5792
1521.5604,87.3952
1522.5247,89.08
1523.4889,90.4617
1524.4531,91.5874
1525.4174,92.6055
1526.3816,93.5968
1527.3458,94.521
1528.3101,95.2937
1529.2743,95.8838
1530.2385,96.3408
1531.2028,96.7631
1532.1670,97.2396
1533.1312,97.7781
1534.0955,98.2854
1535.0597,98.6601
1536.0239,98.8836
1536.9882,98.9955
1537.9524,99.0261
1538.9166,98.9844
1539.8809,98.9386
1540.8451,99.0572
1541.8093,99.3729
1542.7736,99.712
1543.7378,99.9659
1544.7020,100.128
1545.6663,100.21
1546.6305,100.248
1547.5947,100.226
1548.5590,100.167
1549.5232,100.089
1550.4874,99.9936
1551.4517,99.8726
1552.4159,99.7198
1553.3801,99.5475
1554.3444,99.3784
1555.3086,99.2219
1556.2728,99.0558
1557.2371,98.8544
1558.2013,98.6776
1559.1655,98.5953
1560.1298,98.4766
1561.0940,98.2108
1562.0582,97.8486
1563.0225,97.4704
1563.9867,97.1188
1564.9509,96.801
1565.9152,96.4991
1566.8794,96.1798
1567.8436,95.81
1568.8079,95.3826
1569.7721,94.9289
1570.7363,94.4929
1571.7006,94.0961
1572.6648,93.7241
1573.6290,93.3265
1574.5933,92.8345
1575.5575,92.2196
1576.5217,91.5552
1577.4860,90.9516
1578.4502,90.432
1579.4144,89.9464
1580.3787,89.4438
1581.3429,88.8961
1582.3071,88.2986
1583.2714,87.6677
1584.2356,87.0284
1585.1998,86.3957
1586.1641,85.7681
1587.1283,85.1388
1588.0925,84.5085
1589.0568,83.8874
1590.0210,83.2875
1590.9852,82.7161
1591.9495,82.1778
1592.9137,81.6814
1593.8779,81.2422
1594.8422,80.8744
1595.8064,80.5809
1596.7706,80.3513
1597.7349,80.1686
1598.6991,80.0197
1599.6633,79.899
1600.6276,79.8076
1601.5918,79.7486
1602.5560,79.7226
1603.5203,79.7246
1604.4845,79.7461
1605.4487,79.7824
1606.4130,79.8397
1607.3772,79.9353
1608.3414,80.0859
1609.3057,80.2877
1610.2699,80.5105
1611.2341,80.7208
1612.1984,80.9112
1613.1626,81.1116
1614.1268,81.3874
1615.0911,81.8235
1616.0553,82.4551
1617.0195,83.1692
1617.9838,83.7715
1618.9480,84.1847
1619.9122,84.484
1620.8765,84.7913
1621.8407,85.1947
1622.8049,85.7113
1623.7692,86.2806
1624.7334,86.8163
1625.6976,87.2859
1626.6619,87.7228
1627.6261,88.167
1628.5903,88.6117
1629.5546,89.013
1630.5188,89.3393
1631.4830,89.598
1632.4473,89.8225
1633.4115,90.0507
1634.3757,90.3262
1635.3400,90.6916
1636.3042,91.114
1637.2684,91.4669
1638.2327,91.681
1639.1969,91.7944
1640.1611,91.8684
1641.1254,91.9371
1642.0896,92.0065
1643.0538,92.0625
1644.0181,92.0765
1644.9823,92.0255
1645.9465,91.9325
1646.9108,91.8633
1647.8750,91.8525
1648.8392,91.8907
1649.8035,91.9665
1650.7677,92.0578
1651.7319,92.1151
1652.6962,92.1118
1653.6604,92.0705
1654.6246,91.949
1655.5889,91.7054
1656.5531,91.4057
1657.5173,91.1318
1658.4816,90.916
1659.4458,90.7437
1660.4100,90.5789
1661.3743,90.3948
1662.3385,90.1913
1663.3027,89.9824
1664.2670,89.7772
1665.2312,89.5766
1666.1954,89.3714
1667.1597,89.1395
1668.1239,88.8639
1669.0881,88.5645
1670.0524,88.2976
1671.0166,88.1001
1671.9808,87.9597
1672.9451,87.8451
1673.9093,87.7254
1674.8735,87.5687
1675.8378,87.3476
1676.8020,87.0571
1677.7662,86.7254
1678.7305,86.4008
1679.6947,86.1216
1680.6589,85.8916
1681.6232,85.6745
1682.5874,85.4222
1683.5516,85.1325
1684.5159,84.843
1685.4801,84.548
1686.4443,84.2189
1687.4086,83.8615
1688.3728,83.5024
1689.3370,83.1655
1690.3013,82.8647
1691.2655,82.6003
1692.2297,82.3548
1693.1940,82.0937
1694.1582,81.7788
1695.1224,81.3966
1696.0867,80.9898
1697.0509,80.6554
1698.0151,80.4779
1698.9794,80.4401
1699.9436,80.4235
1700.9078,80.3203
1701.8721,80.1208
1702.8363,79.8941
1703.8005,79.7247
1704.7648,79.6702
1705.7290,79.7416
1706.6932,79.9019
1707.6575,80.09
1708.6217,80.2618
1709.5859,80.4116
1710.5502,80.5561
1711.5144,80.7111
1712.4786,80.8808
1713.4429,81.068
1714.4071,81.3021
1715.3713,81.668
1716.3356,82.265
1717.2998,83.0389
1718.2640,83.7442
1719.2283,84.2137
1720.1925,84.491
1721.1567,84.7047
1722.1210,84.9519
1723.0852,85.2674
1724.0494,85.6334
1725.0137,86.0073
1725.9779,86.3517
1726.9421,86.6526
1727.9064,86.9188
1728.8706,87.1697
1729.8348,87.4286
1730.7991,87.7253
1731.7633,88.1019
1732.7275,88.5919
1733.6918,89.1477
1734.6560,89.6226
1735.6202,89.9154
1736.5845,90.0673
1737.5487,90.1878
1738.5129,90.3629
1739.4772,90.6206
1740.4414,90.9341
1741.4056,91.2474
1742.3699,91.5157
1743.3341,91.7318
1744.2983,91.9168
1745.2626,92.0949
1746.2268,92.2837
1747.1910,92.5019
1748.1553,92.7792
1749.1195,93.1364
1750.0837,93.5393
1751.0480,93.8987
1752.0122,94.147
1752.9764,94.2892
1753.9407,94.3767
1754.9049,94.4611
1755.8691,94.5695
1756.8334,94.7026
1757.7976,94.8481
1758.7618,94.9978
1759.7261,95.156
1760.6903,95.3316
1761.6545,95.5224
1762.6188,95.7089
1763.5830,95.8697
1764.5472,95.9996
1765.5115,96.1102
1766.4757,96.2158
1767.4399,96.3204
1768.4042,96.4186
1769.3684,96.5091
1770.3326,96.6118
1771.2969,96.7679
1772.2611,96.9993
1773.2253,97.2663
1774.1896,97.501
1775.1538,97.6758
1776.1180,97.8144
1777.0823,97.955
1778.0465,98.1204
1779.0107,98.3109
1779.9750,98.5109
1780.9392,98.7035
1781.9034,98.8803
1782.8677,99.0404
1783.8319,99.182
1784.7961,99.2965
1785.7604,99.376
1786.7246,99.4234
1787.6888,99.4541
1788.6531,99.4849
1789.6173,99.523
1790.5815,99.5673
1791.5458,99.6184
1792.5100,99.6732
1793.4742,99.714
1794.4385,99.7249
1795.4027,99.7159
1796.3669,99.7297
1797.3312,99.7759
1798.2954,99.8461
1799.2596,99.9321
1800.2239,100.024
1801.1881,100.113
1802.1523,100.189
1803.1166,100.248
1804.0808,100.291
1805.0450,100.321
1806.0093,100.342
1806.9735,100.357
1807.9377,100.37
1808.9020,100.387
1809.8662,100.417
1810.8304,100.466
1811.7947,100.528
1812.7589,100.593
1813.7231,100.65
1814.6874,100.698
1815.6516,100.737
1816.6158,100.767
1817.5801,100.789
1818.5443,100.802
1819.5085,100.811
1820.4728,100.822
1821.4370,100.841
1822.4012,100.865
1823.3655,100.891
1824.3297,100.908
1825.2939,100.91
1826.2582,100.896
1827.2224,100.877
1828.1866,100.87
1829.1509,100.89
1830.1151,100.936
1831.0793,100.987
1832.0436,101.017
1833.0078,101.021
1833.9720,101.011
1834.9363,101.001
1835.9005,100.998
1836.8647,101
1837.8290,101.006
1838.7932,101.018
1839.7574,101.04
1840.7217,101.075
1841.6859,101.117
1842.6501,101.149
1843.6144,101.164
1844.5786,101.162
1845.5428,101.148
1846.5071,101.127
1847.4713,101.108
1848.4355,101.105
1849.3998,101.119
1850.3640,101.142
1851.3282,101.162
1852.2925,101.172
1853.2567,101.171
1854.2209,101.163
1855.1852,101.154
1856.1494,101.145
1857.1136,101.137
1858.0779,101.132
1859.0421,101.129
1860.0063,101.13
1860.9706,101.129
1861.9348,101.12
1862.8990,101.097
1863.8633,101.062
1864.8275,101.02
1865.7917,100.979
1866.7560,100.953
1867.7202,100.962
1868.6844,101.014
1869.6487,101.086
1870.6129,101.14
1871.5771,101.159
1872.5414,101.153
1873.5056,101.14
1874.4698,101.132
1875.4341,101.129
1876.3983,101.13
1877.3625,101.131
1878.3268,101.13
1879.2910,101.128
1880.2552,101.125
1881.2195,101.12
1882.1837,101.113
1883.1479,101.102
1884.1122,101.09
1885.0764,101.08
1886.0406,101.074
1887.0049,101.074
1887.9691,101.077
1888.9333,101.082
1889.8976,101.081
1890.8618,101.07
1891.8260,101.048
1892.7903,101.023
1893.7545,101.003
1894.7188,100.995
1895.6830,100.999
1896.6472,101.01
1897.6115,101.019
1898.5757,101.021
1899.5399,101.014
1900.5042,101.001
1901.4684,100.985
1902.4326,100.97
1903.3969,100.953
1904.3611,100.933
1905.3253,100.908
1906.2896,100.879
1907.2538,100.853
1908.2180,100.834
1909.1823,100.828
1910.1465,100.831
1911.1107,100.834
1912.0750,100.831
1913.0392,100.824
1914.0034,100.818
1914.9677,100.817
1915.9319,100.821
1916.8961,100.824
1917.8604,100.819
1918.8246,100.798
1919.7888,100.764
1920.7531,100.727
1921.7173,100.7
1922.6815,100.692
1923.6458,100.704
1924.6100,100.724
1925.5742,100.741
1926.5385,100.749
1927.5027,100.748
1928.4669,100.74
1929.4312,100.731
1930.3954,100.721
1931.3596,100.713
1932.3239,100.709
1933.2881,100.711
1934.2523,100.72
1935.2166,100.732
1936.1808,100.742
1937.1450,100.747
1938.1093,100.746
1939.0735,100.739
1940.0377,100.729
1941.0020,100.719
1941.9662,100.712
1942.9304,100.712
1943.8947,100.716
1944.8589,100.725
1945.8231,100.737
1946.7874,100.752
1947.7516,100.771
1948.7158,100.79
1949.6801,100.805
1950.6443,100.815
1951.6085,100.823
1952.5728,100.831
1953.5370,100.843
1954.5012,100.858
1955.4655,100.874
1956.4297,100.889
1957.3939,100.901
1958.3582,100.91
1959.3224,100.917
1960.2866,100.923
1961.2509,100.927
1962.2151,100.928
1963.1793,100.925
1964.1436,100.92
1965.1078,100.915
1966.0720,100.917
1967.0363,100.926
1968.0005,100.942
1968.9647,100.962
1969.9290,100.98
1970.8932,100.994
1971.8574,101.005
1972.8217,101.012
1973.7859,101.016
1974.7501,101.018
1975.7144,101.019
1976.6786,101.019
1977.6428,101.02
1978.6071,101.021
1979.5713,101.023
1980.5355,101.025
1981.4998,101.026
1982.4640,101.025
1983.4282,101.021
1984.3925,101.016
1985.3567,101.007
1986.3209,100.997
1987.2852,100.985
1988.2494,100.975
1989.2136,100.968
1990.1779,100.966
1991.1421,100.971
1992.1063,100.98
1993.0706,100.989
1994.0348,100.995
1994.9990,100.997
1995.9633,100.994
1996.9275,100.99
1997.8917,100.987
1998.8560,100.985
1999.8202,100.985
2000.7844,100.987
2001.7487,100.988
2002.7129,100.987
2003.6771,100.983
2004.6414,100.975
2005.6056,100.963
2006.5698,100.949
2007.5341,100.936
2008.4983,100.927
2009.4625,100.922
2010.4268,100.92
2011.3910,100.917
2012.3552,100.91
2013.3195,100.901
2014.2837,100.889
2015.2479,100.879
2016.2122,100.872
2017.1764,100.87
2018.1406,100.872
2019.1049,100.874
2020.0691,100.874
2021.0333,100.87
2021.9976,100.865
2022.9618,100.861
2023.9260,100.859
2024.8903,100.86
2025.8545,100.861
2026.8187,100.86
2027.7830,100.857
2028.7472,100.85
2029.7114,100.84
2030.6757,100.829
2031.6399,100.818
2032.6041,100.81
2033.5684,100.806
2034.5326,100.804
2035.4968,100.803
2036.4611,100.8
2037.4253,100.794
2038.3895,100.783
2039.3538,100.77
2040.3180,100.758
2041.2822,100.75
2042.2465,100.747
2043.2107,100.747
2044.1749,100.749
2045.1392,100.749
2046.1034,100.747
2047.0676,100.741
2048.0320,100.733
2048.9961,100.724
2049.9604,100.716
2050.9246,100.708
2051.8889,100.703
2052.8530,100.699
2053.8174,100.696
2054.7815,100.692
2055.7458,100.689
2056.7100,100.684
2057.6743,100.678
2058.6384,100.67
2059.6028,100.661
2060.5669,100.65
2061.5313,100.639
2062.4954,100.63
2063.4597,100.626
2064.4238,100.628
2065.3882,100.637
2066.3523,100.649
2067.3167,100.661
2068.2808,100.67
2069.2451,100.675
2070.2092,100.676
2071.1736,100.676
2072.1377,100.676
2073.1021,100.677
2074.0662,100.679
2075.0305,100.682
2075.9946,100.684
2076.9590,100.684
2077.9231,100.683
2078.8875,100.68
2079.8516,100.677
2080.8159,100.675
2081.7800,100.674
2082.7444,100.675
2083.7085,100.676
2084.6729,100.678
2085.6370,100.679
2086.6013,100.68
2087.5654,100.682
2088.5298,100.682
2089.4939,100.68
2090.4583,100.675
2091.4224,100.667
2092.3867,100.66
2093.3508,100.654
2094.3152,100.652
2095.2793,100.654
2096.2437,100.658
2097.2078,100.661
2098.1721,100.66
2099.1362,100.656
2100.1006,100.649
2101.0647,100.642
2102.0291,100.636
2102.9932,100.633
2103.9575,100.633
2104.9216,100.634
2105.8860,100.634
2106.8501,100.632
2107.8145,100.627
2108.7786,100.62
2109.7429,100.61
2110.7070,100.601
2111.6714,100.592
2112.6355,100.587
2113.5999,100.584
2114.5640,100.585
2115.5283,100.587
2116.4924,100.588
2117.4568,100.588
2118.4209,100.586
2119.3853,100.581
2120.3494,100.575
2121.3137,100.568
2122.2778,100.562
2123.2422,100.556
2124.2063,100.552
2125.1707,100.549
2126.1348,100.549
2127.0991,100.55
2128.0632,100.553
2129.0276,100.557
2129.9917,100.561
2130.9561,100.562
2131.9202,100.561
2132.8845,100.559
2133.8486,100.557
2134.8130,100.557
2135.7771,100.561
2136.7415,100.569
2137.7056,100.58
2138.6699,100.592
2139.6340,100.602
2140.5984,100.608
2141.5625,100.612
2142.5269,100.614
2143.4910,100.616
2144.4553,100.619
2145.4194,100.624
2146.3838,100.632
2147.3479,100.639
2148.3123,100.646
2149.2764,100.651
2150.2407,100.652
2151.2048,100.651
2152.1692,100.648
2153.1333,100.644
2154.0977,100.642
2155.0618,100.642
2156.0261,100.647
2156.9902,100.654
2157.9546,100.662
2158.9187,100.668
2159.8831,100.673
2160.8472,100.676
2161.8115,100.678
2162.7756,100.681
2163.7400,100.683
2164.7041,100.683
2165.6685,100.682
2166.6326,100.679
2167.5969,100.674
2168.5610,100.668
2169.5254,100.662
2170.4895,100.657
2171.4539,100.653
2172.4180,100.65
2173.3823,100.647
2174.3464,100.644
2175.3108,100.642
2176.2749,100.639
2177.2393,100.638
2178.2034,100.636
2179.1677,100.634
2180.1318,100.63
2181.0962,100.625
2182.0603,100.617
2183.0247,100.609
2183.9888,100.603
2184.9531,100.599
2185.9172,100.599
2186.8816,100.602
2187.8457,100.607
2188.8101,100.612
2189.7742,100.615
2190.7385,100.618
2191.7026,100.62
2192.6670,100.623
2193.6311,100.626
2194.5955,100.63
2195.5596,100.634
2196.5239,100.635
2197.4880,100.633
2198.4524,100.629
2199.4165,100.623
2200.3809,100.618
2201.3450,100.616
2202.3093,100.616
2203.2734,100.619
2204.2378,100.624
2205.2019,100.63
2206.1663,100.633
2207.1304,100.634
2208.0947,100.632
2209.0588,100.628
2210.0232,100.623
2210.9873,100.616
2211.9517,100.609
2212.9158,100.603
2213.8801,100.597
2214.8442,100.593
2215.8086,100.591
2216.7727,100.591
2217.7371,100.591
2218.7012,100.588
2219.6655,100.582
2220.6296,100.575
2221.5940,100.567
2222.5581,100.562
2223.5225,100.56
2224.4866,100.558
2225.4509,100.556
2226.4150,100.551
2227.3794,100.542
2228.3435,100.529
2229.3079,100.514
2230.2720,100.499
2231.2363,100.485
2232.2004,100.472
2233.1648,100.461
2234.1289,100.453
2235.0933,100.448
2236.0574,100.443
2237.0217,100.439
2237.9858,100.431
2238.9502,100.421
2239.9143,100.408
2240.8787,100.393
2241.8428,100.379
2242.8071,100.365
2243.7712,100.352
2244.7356,100.339
2245.6997,100.324
2246.6641,100.309
2247.6282,100.293
2248.5925,100.28
2249.5566,100.268
2250.5210,100.258
2251.4851,100.248
2252.4495,100.236
2253.4136,100.223
2254.3779,100.208
2255.3420,100.192
2256.3064,100.175
2257.2705,100.158
2258.2349,100.14
2259.1990,100.122
2260.1633,100.104
2261.1274,100.087
2262.0918,100.071
2263.0559,100.059
2264.0203,100.049
2264.9844,100.042
2265.9487,100.035
2266.9128,100.028
2267.8772,100.018
2268.8413,100.005
2269.8057,99.991
2270.7698,99.9773
2271.7341,99.9666
2272.6982,99.9602
2273.6626,99.9576
2274.6267,99.9572
2275.5911,99.9571
2276.5552,99.9567
2277.5195,99.9559
2278.4836,99.9552
2279.4480,99.955
2280.4121,99.9547
2281.3765,99.953
2282.3406,99.9484
2283.3049,99.9393
2284.2690,99.9245
2285.2334,99.9036
2286.1975,99.8774
2287.1619,99.8479
2288.1260,99.8172
2289.0903,99.7867
2290.0544,99.7567
2291.0188,99.7271
2291.9829,99.698
2292.9473,99.6708
2293.9114,99.6476
2294.8757,99.6303
2295.8398,99.6193
2296.8042,99.6142
2297.7683,99.6144
2298.7327,99.6209
2299.6968,99.6359
2300.6611,99.661
2301.6252,99.695
2302.5896,99.7322
2303.5537,99.7641
2304.5181,99.7827
2305.4822,99.7845
2306.4465,99.7736
2307.4106,99.7605
2308.3750,99.7592
2309.3391,99.7805
2310.3035,99.8274
2311.2676,99.8933
2312.2319,99.9653
2313.1960,100.03
2314.1604,100.08
2315.1245,100.117
2316.0889,100.148
2317.0530,100.184
2318.0173,100.227
2318.9814,100.273
2319.9458,100.304
2320.9099,100.296
2321.8743,100.226
2322.8384,100.091
2323.8027,99.912
2324.7668,99.729
2325.7312,99.5864
2326.6953,99.5146
2327.6597,99.518
2328.6238,99.5719
2329.5881,99.6306
2330.5522,99.6461
2331.5166,99.5904
2332.4807,99.4688
2333.4451,99.3152
2334.4092,99.1731
2335.3735,99.0733
2336.3376,99.0215
2337.3020,98.9979
2338.2661,98.9696
2339.2305,98.9119
2340.1946,98.8297
2341.1589,98.7695
2342.1230,98.8067
2343.0874,98.9864
2344.0515,99.2396
2345.0159,99.4017
2345.9800,99.3671
2346.9443,99.1797
2347.9084,98.9678
2348.8728,98.8419
2349.8369,98.8412
2350.8013,98.9289
2351.7654,99.0185
2352.7297,99.0302
2353.6938,98.9474
2354.6582,98.8167
2355.6223,98.6796
2356.5867,98.5304
2357.5508,98.3529
2358.5151,98.1683
2359.4792,98.0264
2360.4436,97.9617
2361.4077,97.972
2362.3721,98.0406
2363.3362,98.1599
2364.3005,98.3292
2365.2646,98.5404
2366.2290,98.7748
2367.1931,99.0122
2368.1575,99.2508
2369.1216,99.4815
2370.0859,99.6872
2371.0500,99.8612
2372.0144,99.9965
2372.9785,100.087
2373.9429,100.129
2374.9070,100.121
2375.8713,100.066
2376.8354,99.9735
2377.7998,99.8544
2378.7639,99.7234
2379.7283,99.5943
2380.6924,99.4784
2381.6567,99.3839
2382.6208,99.3153
2383.5852,99.2732
2384.5493,99.2552
2385.5137,99.2556
2386.4778,99.2673
2387.4421,99.2832
2388.4063,99.2973
2389.3706,99.3066
2390.3347,99.3102
2391.2991,99.3095
2392.2632,99.3068
2393.2275,99.3044
2394.1917,99.3038
2395.1560,99.3061
2396.1201,99.3119
2397.0845,99.321
2398.0486,99.3319
2399.0129,99.3423
2399.9771,99.3495
2400.9414,99.3516
2401.9055,99.3488
2402.8699,99.3438
2403.8340,99.3405
2404.7983,99.3421
2405.7625,99.3497
2406.7268,99.3612
2407.6909,99.3731
2408.6553,99.3818
2409.6194,99.3856
2410.5837,99.3853
2411.5479,99.3836
2412.5122,99.3835
2413.4763,99.3868
2414.4407,99.3937
2415.4048,99.4033
2416.3691,99.4142
2417.3333,99.4256
2418.2976,99.4372
2419.2617,99.4488
2420.2261,99.4595
2421.1902,99.4684
2422.1545,99.4748
2423.1187,99.4787
2424.0830,99.4809
2425.0471,99.4827
2426.0115,99.4846
2426.9756,99.4865
2427.9399,99.488
2428.9041,99.4894
2429.8684,99.4917
2430.8325,99.4966
2431.7969,99.5051
2432.7610,99.5168
2433.7253,99.5298
2434.6895,99.5417
2435.6538,99.5511
2436.6179,99.5584
2437.5823,99.5649
2438.5464,99.5721
2439.5107,99.58
2440.4749,99.5878
2441.4392,99.5937
2442.4033,99.5971
2443.3677,99.5985
2444.3318,99.5995
2445.2961,99.6016
2446.2603,99.6052
2447.2246,99.6095
2448.1887,99.6129
2449.1531,99.6147
2450.1172,99.6152
2451.0815,99.6163
2452.0457,99.62
2453.0100,99.627
2453.9741,99.6364
2454.9385,99.6456
2455.9026,99.6521
2456.8669,99.6545
2457.8311,99.6536
2458.7954,99.6516
2459.7595,99.6508
2460.7239,99.6522
2461.6880,99.6553
2462.6523,99.6583
2463.6165,99.66
2464.5808,99.6598
2465.5449,99.6588
2466.5093,99.6583
2467.4734,99.6592
2468.4377,99.6613
2469.4019,99.664
2470.3662,99.6666
2471.3303,99.6689
2472.2947,99.671
2473.2588,99.673
2474.2231,99.6749
2475.1873,99.6763
2476.1516,99.6769
2477.1157,99.677
2478.0801,99.6774
2479.0442,99.6793
2480.0085,99.6833
2480.9727,99.6893
2481.9370,99.6961
2482.9011,99.7019
2483.8655,99.7055
2484.8296,99.7068
2485.7939,99.7068
2486.7581,99.7074
2487.7224,99.7106
2488.6865,99.7172
2489.6509,99.7264
2490.6150,99.7356
2491.5793,99.7424
2492.5435,99.745
2493.5078,99.7441
2494.4719,99.7423
2495.4363,99.7431
2496.4004,99.7486
2497.3647,99.7586
2498.3289,99.7697
2499.2932,99.778
2500.2573,99.7808
2501.2217,99.7786
2502.1858,99.7745
2503.1501,99.7729
2504.1143,99.7763
2505.0786,99.7844
2506.0427,99.794
2507.0071,99.8013
2507.9712,99.8036
2508.9355,99.8009
2509.8997,99.7952
2510.8640,99.7889
2511.8281,99.7842
2512.7925,99.7823
2513.7566,99.7838
2514.7209,99.7889
2515.6851,99.7978
2516.6494,99.8097
2517.6135,99.8227
2518.5779,99.8344
2519.5420,99.8429
2520.5063,99.8478
2521.4705,99.85
2522.4348,99.8514
2523.3989,99.853
2524.3633,99.8548
2525.3274,99.8559
2526.2917,99.8555
2527.2559,99.854
2528.2202,99.8523
2529.1843,99.8513
2530.1487,99.851
2531.1128,99.8508
2532.0771,99.8504
2533.0413,99.85
2534.0056,99.8507
2534.9697,99.8535
2535.9341,99.8584
2536.8982,99.8645
2537.8625,99.8708
2538.8267,99.8767
2539.7910,99.8822
2540.7551,99.8875
2541.7195,99.8924
2542.6836,99.8964
2543.6479,99.8992
2544.6121,99.901
2545.5764,99.9027
2546.5405,99.9053
2547.5049,99.909
2548.4690,99.9139
2549.4333,99.9196
2550.3975,99.9261
2551.3618,99.9332
2552.3259,99.9406
2553.2903,99.9473
2554.2544,99.9526
2555.2188,99.9574
2556.1829,99.9636
2557.1472,99.9735
2558.1113,99.9879
2559.0757,100.005
2560.0398,100.02
2561.0042,100.029
2561.9683,100.03
2562.9326,100.024
2563.8967,100.014
2564.8611,100.006
2565.8252,100.003
2566.7896,100.007
2567.7537,100.015
2568.7180,100.027
2569.6821,100.038
2570.6465,100.048
2571.6106,100.055
2572.5750,100.058
2573.5391,100.06
2574.5034,100.06
2575.4675,100.06
2576.4319,100.06
2577.3960,100.061
2578.3604,100.063
2579.3245,100.067
2580.2888,100.072
2581.2529,100.078
2582.2173,100.084
2583.1814,100.09
2584.1458,100.094
2585.1099,100.098
2586.0742,100.102
2587.0383,100.106
2588.0027,100.108
2588.9668,100.109
2589.9312,100.108
2590.8953,100.108
2591.8596,100.111
2592.8237,100.117
2593.7881,100.126
2594.7522,100.135
2595.7166,100.142
2596.6807,100.144
2597.6450,100.144
2598.6091,100.142
2599.5735,100.142
2600.5376,100.147
2601.5020,100.156
2602.4661,100.167
2603.4304,100.177
2604.3945,100.183
2605.3589,100.185
2606.3230,100.185
2607.2874,100.185
2608.2515,100.187
2609.2158,100.191
2610.1799,100.196
2611.1443,100.202
2612.1084,100.208
2613.0728,100.214
2614.0369,100.221
2615.0012,100.229
2615.9653,100.238
2616.9297,100.247
2617.8938,100.255
2618.8582,100.259
2619.8223,100.261
2620.7866,100.26
2621.7507,100.257
2622.7151,100.254
2623.6792,100.251
2624.6436,100.251
2625.6077,100.253
2626.5720,100.257
2627.5361,100.265
2628.5005,100.274
2629.4646,100.283
2630.4290,100.289
2631.3931,100.294
2632.3574,100.296
2633.3215,100.299
2634.2859,100.306
2635.2500,100.316
2636.2144,100.327
2637.1785,100.337
2638.1428,100.341
2639.1069,100.34
2640.0713,100.336
2641.0354,100.332
2641.9998,100.334
2642.9639,100.342
2643.9282,100.357
2644.8923,100.375
2645.8567,100.393
2646.8208,100.409
2647.7852,100.419
2648.7493,100.423
2649.7136,100.421
2650.6777,100.416
2651.6421,100.412
2652.6062,100.414
2653.5706,100.421
2654.5347,100.432
2655.4990,100.445
2656.4631,100.456
2657.4275,100.465
2658.3916,100.472
2659.3560,100.479
2660.3201,100.487
2661.2844,100.498
2662.2485,100.51
2663.2129,100.523
2664.1770,100.535
2665.1414,100.548
2666.1055,100.561
2667.0698,100.575
2668.0339,100.59
2668.9983,100.605
2669.9624,100.619
2670.9268,100.632
2671.8909,100.643
2672.8552,100.652
2673.8193,100.662
2674.7837,100.671
2675.7478,100.679
2676.7122,100.686
2677.6763,100.689
2678.6406,100.688
2679.6047,100.681
2680.5691,100.671
2681.5332,100.661
2682.4976,100.654
2683.4617,100.653
2684.4260,100.657
2685.3901,100.665
2686.3545,100.674
2687.3186,100.683
2688.2830,100.69
2689.2471,100.697
2690.2114,100.706
2691.1755,100.718
2692.1399,100.732
2693.1040,100.747
2694.0684,100.759
2695.0325,100.764
2695.9968,100.763
2696.9609,100.755
2697.9253,100.746
2698.8894,100.738
2699.8538,100.734
2700.8179,100.734
2701.7822,100.736
2702.7463,100.738
2703.7107,100.737
2704.6748,100.733
2705.6392,100.726
2706.6033,100.716
2707.5676,100.707
2708.5317,100.7
2709.4961,100.696
2710.4602,100.695
2711.4246,100.694
2712.3887,100.693
2713.3530,100.688
2714.3171,100.681
2715.2815,100.672
2716.2456,100.661
2717.2100,100.65
2718.1741,100.639
2719.1384,100.628
2720.1025,100.618
2721.0669,100.609
2722.0310,100.603
2722.9954,100.599
2723.9595,100.595
2724.9238,100.588
2725.8879,100.577
2726.8523,100.564
2727.8164,100.551
2728.7808,100.542
2729.7449,100.536
2730.7092,100.533
2731.6733,100.532
2732.6377,100.532
2733.6018,100.53
2734.5662,100.528
2735.5303,100.525
2736.4946,100.521
2737.4587,100.516
2738.4231,100.509
2739.3872,100.504
2740.3516,100.501
2741.3157,100.505
2742.2800,100.515
2743.2441,100.531
2744.2085,100.55
2745.1726,100.568
2746.1370,100.582
2747.1011,100.59
2748.0654,100.591
2749.0295,100.588
2749.9939,100.584
2750.9580,100.582
2751.9224,100.582
2752.8865,100.583
2753.8508,100.583
2754.8149,100.579
2755.7793,100.569
2756.7434,100.554
2757.7078,100.537
2758.6719,100.524
2759.6362,100.515
2760.6003,100.513
2761.5647,100.515
2762.5288,100.518
2763.4932,100.519
2764.4573,100.515
2765.4216,100.507
2766.3857,100.496
2767.3501,100.485
2768.3142,100.476
2769.2786,100.47
2770.2427,100.466
2771.2070,100.458
2772.1711,100.444
2773.1355,100.422
2774.0996,100.393
2775.0640,100.359
2776.0281,100.326
2776.9924,100.294
2777.9565,100.264
2778.9209,100.234
2779.8850,100.2
2780.8494,100.163
2781.8135,100.125
2782.7778,100.088
2783.7419,100.055
2784.7063,100.029
2785.6704,100.007
2786.6348,99.9842
2787.5989,99.9556
2788.5632,99.9174
2789.5273,99.8695
2790.4917,99.816
2791.4558,99.7626
2792.4202,99.714
2793.3843,99.6711
2794.3486,99.6313
2795.3127,99.5892
2796.2771,99.5408
2797.2412,99.4848
2798.2056,99.4236
2799.1697,99.3609
2800.1340,99.2996
2801.0981,99.2406
2802.0625,99.1831
2803.0266,99.1255
2803.9910,99.0669
2804.9551,99.0064
2805.9194,98.9424
2806.8835,98.8724
2807.8479,98.7937
2808.8120,98.705
2809.7764,98.6075
2810.7405,98.5047
2811.7048,98.3999
2812.6689,98.2924
2813.6333,98.1842
2814.5974,98.0721
2815.5618,97.9518
2816.5259,97.8199
2817.4902,97.6745
2818.4543,97.5153
2819.4187,97.3429
2820.3828,97.1581
2821.3472,96.9612
2822.3113,96.7522
2823.2756,96.5306
2824.2397,96.2954
2825.2041,96.0454
2826.1682,95.7796
2827.1326,95.4969
2828.0967,95.1956
2829.0610,94.8741
2830.0251,94.5316
2830.9895,94.1692
2831.9536,93.7906
2832.9180,93.4018
2833.8821,93.0085
2834.8464,92.6144
2835.8105,92.2204
2836.7749,91.8255
2837.7390,91.4294
2838.7034,91.0334
2839.6675,90.64
2840.6318,90.2491
2841.5959,89.8555
2842.5603,89.4493
2843.5244,89.0212
2844.4888,88.5703
2845.4529,88.1112
2846.4172,87.6733
2847.3813,87.2922
2848.3457,86.9956
2849.3098,86.7915
2850.2742,86.6643
2851.2383,86.5824
2852.2026,86.5113
2853.1667,86.4263
2854.1311,86.3178
2855.0952,86.1883
2856.0596,86.0448
2857.0237,85.8909
2857.9880,85.7252
2858.9521,85.5425
2859.9165,85.3384
2860.8806,85.1118
2861.8450,84.866
2862.8091,84.607
2863.7734,84.3426
2864.7375,84.081
2865.7019,83.8304
2866.6660,83.5976
2867.6304,83.3868
2868.5945,83.1992
2869.5588,83.0326
2870.5229,82.8831
2871.4873,82.7455
2872.4514,82.6146
2873.4158,82.4855
2874.3799,82.3539
2875.3442,82.2157
2876.3083,82.0667
2877.2727,81.903
2878.2368,81.7217
2879.2012,81.5236
2880.1653,81.3152
2881.1296,81.1101
2882.0938,80.9258
2883.0581,80.779
2884.0222,80.6785
2884.9866,80.6217
2885.9507,80.5939
2886.9150,80.5731
2887.8792,80.5365
2888.8435,80.4698
2889.8076,80.3734
2890.7720,80.2623
2891.7361,80.1583
2892.7004,80.0741
2893.6646,79.9993
2894.6289,79.8971
2895.5930,79.7192
2896.5574,79.4342
2897.5215,79.0534
2898.4858,78.6362
2899.4500,78.2689
2900.4143,78.0252
2901.3784,77.9324
2902.3428,77.9604
2903.3069,78.041
2904.2712,78.1016
2905.2354,78.0948
2906.1997,78.0079
2907.1638,77.8542
2908.1282,77.6562
2909.0923,77.4333
2910.0566,77.1989
2911.0208,76.963
2911.9851,76.7349
2912.9492,76.5226
2913.9136,76.3323
2914.8777,76.1668
2915.8420,76.0272
2916.8062,75.9138
2917.7705,75.8258
2918.7346,75.7607
2919.6990,75.7135
2920.6631,75.6783
2921.6274,75.6504
2922.5916,75.6268
2923.5559,75.6065
2924.5200,75.5894
2925.4844,75.5763
2926.4485,75.5698
2927.4128,75.5746
2928.3770,75.5963
2929.3413,75.6384
2930.3054,75.701
2931.2698,75.7815
2932.2339,75.8771
2933.1982,75.9883
2934.1624,76.1188
2935.1267,76.2732
2936.0908,76.4525
2937.0552,76.6522
2938.0193,76.8633
2938.9836,77.0764
2939.9478,77.2865
2940.9121,77.4953
2941.8762,77.7095
2942.8406,77.9353
2943.8047,78.172
2944.7690,78.4094
2945.7332,78.6292
2946.6975,78.8119
2947.6616,78.9445
2948.6260,79.0254
2949.5901,79.0641
2950.5544,79.0757
2951.5186,79.0738
2952.4829,79.0659
2953.4470,79.0533
2954.4114,79.0349
2955.3755,79.0116
2956.3398,78.9889
2957.3040,78.9753
2958.2683,78.9779
2959.2324,78.9979
2960.1968,79.0288
2961.1609,79.0589
2962.1252,79.0765
2963.0894,79.0753
2964.0537,79.0568
2965.0178,79.0283
2965.9822,78.9996
2966.9463,78.9806
2967.9106,78.9812
2968.8748,79.0127
2969.8391,79.0878
2970.8032,79.2175
2971.7676,79.4062
2972.7317,79.6482
2973.6960,79.9288
2974.6602,80.2292
2975.6245,80.5335
2976.5886,80.8324
2977.5530,81.1232
2978.5171,81.4067
2979.4814,81.6834
2980.4456,81.9483
2981.4099,82.1881
2982.3740,82.382
2983.3384,82.5093
2984.3025,82.5649
2985.2668,82.5761
2986.2310,82.6079
2987.1953,82.7475
2988.1594,83.0691
2989.1238,83.5948
2990.0879,84.2773
2991.0522,85.0147
2992.0164,85.6951
2992.9807,86.244
2993.9448,86.6508
2994.9092,86.9608
2995.8733,87.2412
2996.8376,87.5445
2997.8018,87.8897
2998.7661,88.2669
2999.7302,88.6567
3000.6946,89.0462
3001.6587,89.4357
3002.6230,89.8332
3003.5872,90.2459
3004.5515,90.6748
3005.5156,91.1141
3006.4800,91.555
3007.4441,91.9893
3008.4084,92.4115
3009.3726,92.8201
3010.3369,93.2172
3011.3010,93.6069
3012.2654,93.9928
3013.2295,94.3756
3014.1938,94.7515
3015.1580,95.1145
3016.1223,95.4587
3017.0864,95.7816
3018.0508,96.0849
3019.0149,96.3728
3019.9792,96.6497
3020.9434,96.9179
3021.9077,97.1774
3022.8718,97.4269
3023.8362,97.6652
3024.8003,97.8921
3025.7646,98.1079
3026.7288,98.3133
3027.6931,98.5084
3028.6572,98.6929
3029.6216,98.8668
3030.5857,99.0307
3031.5500,99.186
3032.5142,99.3344
3033.4785,99.4771
3034.4426,99.6144
3035.4070,99.7455
3036.3711,99.8692
3037.3354,99.9834
3038.2996,100.086
3039.2639,100.139
3040.2280,100.17
3041.1924,100.184
3042.1565,100.183
3043.1208,100.171
3044.0850,100.155
3045.0493,100.141
3046.0134,100.131
3046.9778,100.124
3047.9419,100.114
3048.9063,100.094
3049.8704,100.057
3050.8347,100.006
3051.7988,99.9441
3052.7632,99.8813
3053.7273,99.8251
3054.6917,99.7797
3055.6558,99.7451
3056.6201,99.718
3057.5842,99.6935
3058.5486,99.6665
3059.5127,99.6322
3060.4771,99.5864
3061.4412,99.5279
3062.4055,99.4596
3063.3696,99.3889
3064.3340,99.3247
3065.2981,99.2734
3066.2625,99.2353
3067.2266,99.2045
3068.1909,99.1727
3069.1550,99.134
3070.1194,99.087
3071.0835,99.0341
3072.0479,98.9785
3073.0120,98.9222
3073.9763,98.8652
3074.9404,98.8074
3075.9048,98.7494
3076.8689,98.6936
3077.8333,98.6425
3078.7974,98.5972
3079.7617,98.556
3080.7258,98.515
3081.6902,98.4694
3082.6543,98.4157
3083.6187,98.3526
3084.5828,98.2819
3085.5471,98.2077
3086.5112,98.1351
3087.4756,98.0681
3088.4397,98.008
3089.4041,97.9527
3090.3682,97.8975
3091.3325,97.8373
3092.2966,97.7687
3093.2610,97.6911
3094.2251,97.6066
3095.1895,97.519
3096.1536,97.4325
3097.1179,97.3503
3098.0820,97.2739
3099.0464,97.2023
3100.0105,97.1329
3100.9749,97.0621
3101.9390,96.9875
3102.9033,96.9092
3103.8674,96.8297
3104.8318,96.7526
3105.7959,96.6801
3106.7603,96.6114
3107.7244,96.5428
3108.6887,96.4697
3109.6528,96.3889
3110.6172,96.3002
3111.5813,96.2062
3112.5457,96.1104
3113.5098,96.0161
3114.4741,95.9251
3115.4382,95.8382
3116.4026,95.7553
3117.3667,95.6758
3118.3311,95.5993
3119.2952,95.5253
3120.2595,95.4529
3121.2236,95.3813
3122.1880,95.3096
3123.1521,95.2369
3124.1165,95.1625
3125.0806,95.0854
3126.0449,95.0047
3127.0090,94.9195
3127.9734,94.8298
3128.9375,94.7363
3129.9019,94.6415
3130.8660,94.5491
3131.8303,94.4629
3132.7944,94.3855
3133.7588,94.3168
3134.7229,94.254
3135.6873,94.1924
3136.6514,94.1274
3137.6157,94.0556
3138.5798,93.9757
3139.5442,93.8884
3140.5083,93.7952
3141.4727,93.6982
3142.4368,93.5997
3143.4011,93.5013
3144.3652,93.4048
3145.3296,93.3113
3146.2937,93.2222
3147.2581,93.138
3148.2222,93.0585
3149.1865,92.982
3150.1506,92.9057
3151.1150,92.8266
3152.0791,92.743
3153.0435,92.6555
3154.0076,92.5663
3154.9719,92.478
3155.9360,92.3916
3156.9004,92.3053
3157.8645,92.216
3158.8289,92.1213
3159.7930,92.0213
3160.7573,91.9187
3161.7214,91.818
3162.6858,91.7227
3163.6499,91.6344
3164.6143,91.5527
3165.5784,91.4762
3166.5427,91.4036
3167.5068,91.3337
3168.4712,91.2646
3169.4353,91.2101
3170.3997,91.1301
3171.3638,91.0377
3172.3281,90.9321
3173.2922,90.817
3174.2566,90.7004
3175.2207,90.591
3176.1851,90.4945
3177.1492,90.411
3178.1135,90.3354
3179.0776,90.2607
3180.0420,90.1821
3181.0061,90.0996
3181.9705,90.0175
3182.9346,89.9414
3183.8989,89.8743
3184.8630,89.8138
3185.8274,89.7533
3186.7915,89.6849
3187.7559,89.6036
3188.7200,89.5103
3189.6843,89.4107
3190.6484,89.3127
3191.6128,89.222
3192.5769,89.1398
3193.5413,89.0626
3194.5054,88.9859
3195.4697,88.9065
3196.4338,88.8252
3197.3982,88.7445
3198.3623,88.6676
3199.3267,88.5953
3200.2908,88.5264
3201.2551,88.4589
3202.2192,88.3914
3203.1836,88.323
3204.1477,88.2532
3205.1121,88.1816
3206.0762,88.1079
3207.0405,88.0329
3208.0046,87.9579
3208.9690,87.8839
3209.9331,87.8102
3210.8975,87.7349
3211.8616,87.6563
3212.8259,87.5754
3213.7900,87.4963
3214.7544,87.424
3215.7185,87.3623
3216.6829,87.3104
3217.6470,87.2643
3218.6113,87.2187
3219.5754,87.1693
3220.5398,87.114
3221.5039,87.0526
3222.4683,86.986
3223.4324,86.9154
3224.3967,86.8433
3225.3608,86.7735
3226.3252,86.7101
3227.2893,86.6559
3228.2537,86.6104
3229.2178,86.5694
3230.1821,86.5272
3231.1462,86.4789
3232.1106,86.4228
3233.0747,86.3609
3234.0391,86.2975
3235.0032,86.2367
3235.9675,86.1802
3236.9316,86.1268
3237.8960,86.0731
3238.8601,86.0157
3239.8245,85.9534
3240.7886,85.8879
3241.7529,85.8234
3242.7170,85.7642
3243.6814,85.7131
3244.6455,85.6696
3245.6099,85.6302
3246.5740,85.5897
3247.5383,85.5445
3248.5024,85.494
3249.4668,85.4408
3250.4309,85.3894
3251.3953,85.3435
3252.3594,85.3041
3253.3237,85.2689
3254.2878,85.2338
3255.2522,85.1956
3256.2163,85.1536
3257.1807,85.1093
3258.1448,85.0647
3259.1091,85.0205
3260.0732,84.9753
3261.0376,84.9277
3262.0017,84.8774
3262.9661,84.826
3263.9302,84.7758
3264.8945,84.7283
3265.8586,84.6827
3266.8230,84.6373
3267.7871,84.5901
3268.7515,84.5404
3269.7156,84.4893
3270.6799,84.4386
3271.6440,84.3902
3272.6084,84.3459
3273.5725,84.3068
3274.5369,84.2731
3275.5010,84.2437
3276.4653,84.2166
3277.4294,84.1899
3278.3938,84.1629
3279.3579,84.1357
3280.3223,84.1089
3281.2864,84.0819
3282.2507,84.0525
3283.2148,84.0176
3284.1792,83.9759
3285.1433,83.9288
3286.1077,83.8804
3287.0718,83.8353
3288.0361,83.7962
3289.0002,83.7626
3289.9646,83.7317
3290.9287,83.7008
3291.8931,83.6688
3292.8572,83.637
3293.8215,83.6074
3294.7856,83.5801
3295.7500,83.553
3296.7141,83.5218
3297.6785,83.4835
3298.6426,83.4382
3299.6069,83.3901
3300.5710,83.3445
3301.5354,83.3051
3302.4995,83.2719
3303.4639,83.2414
3304.4280,83.2099
3305.3923,83.1761
3306.3564,83.1416
3307.3208,83.1099
3308.2849,83.0825
3309.2493,83.0591
3310.2134,83.0379
3311.1777,83.018
3312.1418,83.0006
3313.1062,82.9874
3314.0703,82.978
3315.0347,82.9688
3315.9988,82.9538
3316.9631,82.9283
3317.9272,82.892
3318.8916,82.8494
3319.8557,82.8071
3320.8201,82.7708
3321.7842,82.7421
3322.7485,82.719
3323.7126,82.6978
3324.6770,82.676
3325.6411,82.6534
3326.6055,82.6321
3327.5696,82.6138
3328.5339,82.5987
3329.4980,82.5849
3330.4624,82.5697
3331.4265,82.5518
3332.3909,82.5319
3333.3550,82.5128
3334.3193,82.4967
3335.2834,82.4837
3336.2478,82.4711
3337.2119,82.4545
3338.1763,82.4308
3339.1404,82.3998
3340.1047,82.3646
3341.0688,82.3301
3342.0332,82.3007
3342.9973,82.2786
3343.9617,82.2641
3344.9258,82.2556
3345.8901,82.251
3346.8542,82.2482
3347.8186,82.2453
3348.7827,82.2413
3349.7471,82.2355
3350.7112,82.2272
3351.6755,82.2153
3352.6396,82.1978
3353.6040,82.173
3354.5681,82.1411
3355.5325,82.1058
3356.4966,82.0734
3357.4609,82.0505
3358.4250,82.0403
3359.3894,82.0408
3360.3535,82.0457
3361.3179,82.0487
3362.2820,82.0469
3363.2463,82.0419
3364.2104,82.0382
3365.1748,82.0393
3366.1389,82.0456
3367.1033,82.054
3368.0674,82.0604
3369.0317,82.0627
3369.9958,82.0613
3370.9602,82.0585
3371.9243,82.0562
3372.8887,82.0544
3373.8528,82.0519
3374.8171,82.047
3375.7813,82.0395
3376.7456,82.0315
3377.7097,82.0263
3378.6741,82.0271
3379.6382,82.035
3380.6025,82.0493
3381.5667,82.0669
3382.5310,82.0847
3383.4951,82.1003
3384.4595,82.113
3385.4236,82.1229
3386.3879,82.131
3387.3521,82.1384
3388.3164,82.1457
3389.2805,82.153
3390.2449,82.16
3391.2090,82.166
3392.1733,82.1715
3393.1375,82.1793
3394.1018,82.1944
3395.0659,82.2224
3396.0303,82.265
3396.9944,82.3179
3397.9587,82.3699
3398.9229,82.409
3399.8872,82.4283
3400.8513,82.4308
3401.8157,82.4277
3402.7798,82.4311
3403.7441,82.4478
3404.7083,82.4762
3405.6726,82.5095
3406.6367,82.5421
3407.6011,82.5731
3408.5652,82.6065
3409.5295,82.6466
3410.4937,82.6931
3411.4580,82.7408
3412.4221,82.7821
3413.3865,82.8117
3414.3506,82.8299
3415.3149,82.842
3416.2791,82.8557
3417.2434,82.8779
3418.2075,82.9127
3419.1719,82.9609
3420.1360,83.0198
3421.1003,83.0838
3422.0645,83.1467
3423.0288,83.2036
3423.9929,83.2536
3424.9573,83.2991
3425.9214,83.3447
3426.8857,83.3947
3427.8499,83.4505
3428.8142,83.5104
3429.7783,83.5708
3430.7427,83.6287
3431.7068,83.6834
3432.6711,83.7367
3433.6353,83.791
3434.5996,83.8472
3435.5637,83.9036
3436.5281,83.9573
3437.4922,84.0061
3438.4565,84.0498
3439.4207,84.0898
3440.3850,84.1283
3441.3491,84.1672
3442.3135,84.2086
3443.2776,84.2555
3444.2419,84.3124
3445.2061,84.3837
3446.1704,84.47
3447.1345,84.5658
3448.0989,84.6615
3449.0630,84.7477
3450.0273,84.8207
3450.9915,84.8831
3451.9558,84.9397
3452.9199,84.9945
3453.8843,85.0479
3454.8484,85.0986
3455.8127,85.1464
3456.7769,85.1946
3457.7412,85.2496
3458.7053,85.3168
3459.6697,85.3974
3460.6338,85.4857
3461.5981,85.5726
3462.5623,85.65
3463.5266,85.716
3464.4907,85.7757
3465.4551,85.8379
3466.4192,85.9086
3467.3835,85.9878
3468.3477,86.0694
3469.3120,86.146
3470.2761,86.2143
3471.2405,86.2778
3472.2046,86.3441
3473.1689,86.4197
3474.1331,86.5048
3475.0974,86.5933
3476.0615,86.6767
3477.0259,86.7506
3477.9900,86.817
3478.9543,86.8824
3479.9185,86.9525
3480.8828,87.0283
3481.8469,87.1063
3482.8113,87.1822
3483.7754,87.2558
3484.7397,87.332
3485.7039,87.4168
3486.6682,87.5127
3487.6323,87.6161
3488.5967,87.7191
3489.5608,87.8138
3490.5251,87.8972
3491.4893,87.9724
3492.4536,88.0465
3493.4177,88.127
3494.3821,88.2177
3495.3462,88.3165
3496.3105,88.4146
3497.2747,88.5017
3498.2390,88.5714
3499.2031,88.626
3500.1675,88.6771
3501.1316,88.741
3502.0959,88.8309
3503.0601,88.9469
3504.0244,89.075
3504.9885,89.1978
3505.9529,89.3066
3506.9170,89.4049
3507.8813,89.5036
3508.8455,89.6125
3509.8098,89.7335
3510.7739,89.859
3511.7383,89.9778
3512.7024,90.0828
3513.6667,90.1745
3514.6309,90.2584
3515.5952,90.3407
3516.5593,90.4243
3517.5237,90.5094
3518.4878,90.5955
3519.4521,90.6829
3520.4163,90.7742
3521.3806,90.8718
3522.3447,90.9759
3523.3091,91.0837
3524.2732,91.191
3525.2375,91.2968
3526.2017,91.4046
3527.1660,91.5207
3528.1301,91.6484
3529.0945,91.7836
3530.0586,91.917
3531.0229,92.0403
3531.9871,92.1521
3532.9514,92.2586
3533.9155,92.3696
3534.8799,92.4933
3535.8440,92.631
3536.8083,92.7754
3537.7725,92.9136
3538.7368,93.034
3539.7009,93.1323
3540.6653,93.2123
3541.6294,93.2847
3542.5938,93.3649
3543.5579,93.4701
3544.5222,93.6117
3545.4863,93.7851
3546.4507,93.9685
3547.4148,94.1373
3548.3792,94.2808
3549.3433,94.4062
3550.3076,94.5303
3551.2717,94.6694
3552.2361,94.8298
3553.2002,95.0038
3554.1646,95.1748
3555.1287,95.3291
3556.0930,95.463
3557.0571,95.5807
3558.0215,95.688
3558.9856,95.7871
3559.9500,95.875
3560.9141,95.9463
3561.8784,95.9989
3562.8425,96.0385
3563.8069,96.0812
3564.7710,96.1592
3565.7354,96.3154
3566.6995,96.5655
3567.6638,96.857
3568.6279,97.1051
3569.5923,97.27
3570.5564,97.3687
3571.5208,97.4373
3572.4849,97.5025
3573.4492,97.5747
3574.4133,97.6534
3575.3777,97.7346
3576.3418,97.8163
3577.3062,97.8992
3578.2703,97.9835
3579.2346,98.0661
3580.1987,98.1408
3581.1631,98.2027
3582.1272,98.2519
3583.0916,98.2929
3584.0557,98.3321
3585.0200,98.3788
3585.9841,98.4475
3586.9485,98.5464
3587.9126,98.6537
3588.8770,98.7278
3589.8411,98.7504
3590.8054,98.7375
3591.7695,98.7174
3592.7339,98.7109
3593.6980,98.7257
3594.6624,98.7572
3595.6265,98.7924
3596.5908,98.822
3597.5549,98.85
3598.5193,98.8917
3599.4834,98.9601
3600.4478,99.0526
3601.4119,99.1498
3602.3762,99.2311
3603.3403,99.2888
3604.3047,99.3295
3605.2688,99.3567
3606.2332,99.3889
3607.1973,99.4342
3608.1616,99.4861
3609.1257,99.528
3610.0901,99.5457
3611.0542,99.5386
3612.0186,99.5177
3612.9829,99.4962
3613.9470,99.4811
3614.9114,99.4734
3615.8755,99.4719
3616.8398,99.4782
3617.8040,99.4978
3618.7683,99.5308
3619.7324,99.5576
3620.6968,99.5457
3621.6609,99.4825
3622.6252,99.3908
3623.5894,99.3095
3624.5537,99.2668
3625.5178,99.2675
3626.4822,99.2993
3627.4463,99.3531
3628.4106,99.4223
3629.3748,99.4703
3630.3391,99.4512
3631.3032,99.3707
3632.2676,99.2769
3633.2317,99.2103
3634.1960,99.1811
3635.1602,99.1746
3636.1245,99.1674
3637.0886,99.1437
3638.0530,99.0999
3639.0171,99.0394
3639.9814,98.9651
3640.9456,98.8773
3641.9099,98.777
3642.8740,98.6699
3643.8384,98.5618
3644.8025,98.4488
3645.7668,98.3117
3646.7310,98.1389
3647.6953,97.9865
3648.6594,97.9715
3649.6238,98.0864
3650.5879,98.1706
3651.5522,98.1384
3652.5164,98.0223
3653.4807,97.8765
3654.4448,97.7293
3655.4092,97.59
3656.3733,97.4651
3657.3376,97.361
3658.3018,97.2811
3659.2661,97.2277
3660.2302,97.2022
3661.1946,97.1992
3662.1587,97.2062
3663.1230,97.2105
3664.0872,97.2084
3665.0515,97.2033
3666.0156,97.1972
3666.9800,97.1834
3667.9441,97.1565
3668.9084,97.1259
3669.8726,97.1051
3670.8369,97.0867
3671.8010,97.0533
3672.7654,97.0009
3673.7295,96.95
3674.6938,96.9531
3675.6580,97.0621
3676.6223,97.2499
3677.5864,97.426
3678.5508,97.5338
3679.5149,97.5726
3680.4792,97.56
3681.4434,97.5117
3682.4077,97.4458
3683.3718,97.3862
3684.3362,97.3546
3685.3003,97.3555
3686.2646,97.3705
3687.2288,97.3748
3688.1931,97.3737
3689.1572,97.4088
3690.1216,97.4982
3691.0857,97.61
3692.0500,97.7137
3693.0142,97.8072
3693.9785,97.8994
3694.9426,97.996
3695.9070,98.098
3696.8711,98.2065
3697.8354,98.3247
3698.7996,98.4573
3699.7639,98.6072
3700.7280,98.7708
3701.6924,98.9318
3702.6565,99.0652
3703.6208,99.1536
3704.5850,99.2008
3705.5493,99.2245
3706.5134,99.2402
3707.4778,99.2534
3708.4419,99.2707
3709.4063,99.3238
3710.3704,99.4633
3711.3347,99.6876
3712.2988,99.9066
3713.2632,100.032
3714.2273,100.053
3715.1917,100.008
3716.1558,99.937
3717.1201,99.8605
3718.0842,99.7805
3719.0486,99.6984
3720.0127,99.6363
3720.9771,99.5784
3721.9412,99.5413
3722.9055,99.5408
3723.8696,99.5834
3724.8340,99.6592
3725.7981,99.7432
3726.7625,99.8109
3727.7266,99.8536
3728.6909,99.8772
3729.6550,99.8889
3730.6194,99.8866
3731.5835,99.8613
3732.5479,99.8156
3733.5120,99.7879
3734.4763,99.837
3735.4404,99.9647
3736.4048,100.093
3737.3689,100.16
3738.3333,100.183
3739.2974,100.224
3740.2617,100.326
3741.2258,100.488
3742.1902,100.656
3743.1543,100.749
3744.1187,100.717
3745.0828,100.571
3746.0471,100.372
3747.0112,100.186
3747.9756,100.063
3748.9397,100.028
3749.9041,100.101
3750.8682,100.257
3751.8325,100.392
3752.7966,100.414
3753.7610,100.331
3754.7251,100.211
3755.6895,100.112
3756.6536,100.059
3757.6179,100.058
3758.5820,100.096
3759.5464,100.146
3760.5105,100.176
3761.4749,100.177
3762.4390,100.159
3763.4033,100.138
3764.3674,100.126
3765.3318,100.129
3766.2959,100.144
3767.2603,100.169
3768.2244,100.2
3769.1887,100.235
3770.1528,100.267
3771.1172,100.285
3772.0813,100.28
3773.0457,100.254
3774.0098,100.219
3774.9741,100.189
3775.9382,100.169
3776.9026,100.16
3777.8667,100.159
3778.8311,100.161
3779.7952,100.153
3780.7595,100.126
3781.7236,100.083
3782.6880,100.04
3783.6521,100.015
3784.6165,100.022
3785.5806,100.061
3786.5449,100.117
3787.5090,100.174
3788.4734,100.217
3789.4375,100.242
3790.4019,100.25
3791.3660,100.245
3792.3303,100.224
3793.2944,100.185
3794.2588,100.13
3795.2229,100.07
3796.1873,100.024
3797.1514,100.003
3798.1157,100.004
3799.0798,100.014
3800.0442,100.022
3801.0083,100.028
3801.9727,100.036
3802.9368,100.047
3803.9011,100.07
3804.8652,100.113
3805.8296,100.175
3806.7937,100.235
3807.7581,100.263
3808.7222,100.24
3809.6865,100.185
3810.6506,100.14
3811.6150,100.133
3812.5791,100.163
3813.5435,100.199
3814.5076,100.205
3815.4719,100.17
3816.4360,100.11
3817.4004,100.049
3818.3645,100.012
3819.3289,100.011
3820.2930,100.044
3821.2573,100.084
3822.2214,100.088
3823.1858,100.042
3824.1499,99.971
3825.1143,99.9131
3826.0784,99.8938
3827.0427,99.9151
3828.0068,99.9609
3828.9712,100.008
3829.9353,100.038
3830.8997,100.045
3831.8638,100.035
3832.8281,100.017
3833.7922,99.9964
3834.7566,99.9703
3835.7207,99.9312
3836.6851,99.88
3837.6492,99.8345
3838.6135,99.8179
3839.5776,99.8374
3840.5420,99.8838
3841.5061,99.9438
3842.4705,100.004
3843.4346,100.044
3844.3989,100.045
3845.3630,100.001
3846.3274,99.932
3847.2915,99.8764
3848.2559,99.8761
3849.2200,99.9537
3850.1843,100.098
3851.1484,100.268
3852.1128,100.43
3853.0769,100.562
3854.0413,100.596
3855.0054,100.473
3855.9697,100.247
3856.9338,100.027
3857.8982,99.8813
3858.8623,99.8224
3859.8267,99.8208
3860.7908,99.8334
3861.7551,99.8323
3862.7192,99.8218
3863.6836,99.8249
3864.6477,99.8531
3865.6121,99.8979
3866.5762,99.9421
3867.5405,99.9699
3868.5046,99.9726
3869.4690,99.955
3870.4331,99.9335
3871.3975,99.9212
3872.3616,99.918
3873.3259,99.9168
3874.2900,99.9162
3875.2544,99.9213
3876.2185,99.9367
3877.1829,99.9592
3878.1470,99.9788
3879.1113,99.9873
3880.0754,99.9872
3881.0398,99.9906
3882.0039,100.01
3882.9683,100.047
3883.9324,100.094
3884.8967,100.133
3885.8608,100.145
3886.8252,100.125
3887.7893,100.081
3888.7537,100.032
3889.7178,99.9925
3890.6821,99.9695
3891.6462,99.9645
3892.6106,99.968
3893.5747,99.9681
3894.5391,99.9652
3895.5032,99.9684
3896.4675,99.9796
3897.4316,99.9889
3898.3960,99.9864
3899.3601,99.9736
3900.3245,99.9603
3901.2886,99.9533
3902.2529,99.9537
3903.2170,99.9612
3904.1814,99.9733
3905.1455,99.9841
3906.1099,99.9902
3907.0740,99.9943
3908.0383,100
3909.0024,100.008
3909.9668,100.012
3910.9309,100.01
3911.8953,100.003
3912.8594,99.9965
3913.8237,99.9961
3914.7878,100.004
3915.7522,100.021
3916.7163,100.043
3917.6807,100.061
3918.6448,100.064
3919.6091,100.043
3920.5732,100.001
3921.5376,99.9532
3922.5017,99.9149
3923.4661,99.8966
3924.4302,99.897
3925.3945,99.9031
3926.3586,99.9002
3927.3230,99.8831
3928.2871,99.8581
3929.2515,99.8379
3930.2156,99.8359
3931.1799,99.8601
3932.1440,99.9055
3933.1084,99.9566
3934.0725,99.9989
3935.0369,100.027
3936.0010,100.044
3936.9653,100.051
3937.9294,100.046
3938.8938,100.025
3939.8579,99.9897
3940.8223,99.9495
3941.7864,99.92
3942.7507,99.9117
3943.7148,99.9228
3944.6792,99.9416
3945.6433,99.9552
3946.6077,99.9563
3947.5718,99.9453
3948.5361,99.9292
3949.5002,99.916
3950.4646,99.909
3951.4287,99.907
3952.3931,99.907
3953.3572,99.9073
3954.3215,99.9075
3955.2856,99.9075
3956.2500,99.9072
3957.2141,99.9062
3958.1785,99.9048
3959.1426,99.9045
3960.1069,99.9075
3961.0710,99.9154
3962.0354,99.9273
3962.9995,99.9393
3963.9639,99.9467
3964.9280,99.9458
3965.8923,99.9363
3966.8564,99.9206
3967.8208,99.9024
3968.7849,99.885
3969.7493,99.8709
3970.7134,99.8608
3971.6777,99.855
3972.6418,99.8536
3973.6062,99.8563
3974.5703,99.8622
3975.5347,99.869
3976.4988,99.8741
3977.4631,99.8756
3978.4272,99.8729
3979.3916,99.8664
3980.3557,99.8569
3981.3201,99.8447
3982.2842,99.8301
3983.2485,99.8138
3984.2126,99.7984
3985.1770,99.7879
3986.1411,99.7861
3987.1055,99.7941
3988.0696,99.8086
3989.0339,99.8222
3989.9980,99.8274
3990.9624,99.8209
3991.9265,99.8057
3992.8909,99.7897
3993.8550,99.7801
3994.8193,99.7791
3995.7834,99.7826
3996.7478,99.7842
3997.7119,99.7798
3998.6763,99.7712
3999.6404,99.7643
4000.6047,99.6516

##### Extended Information
[Comments]
Sample name
Comment
User
Division
Company,HANKYONG

[Detailed Information]
Creation date,4/24/2024 10:39 AM

Data array type,Linear data array
Horizontal axis,Wavenumber [cm-1]
Vertical axis,%T
Start,649.893 cm-1
End,4000.6 cm-1
Data interval,0.964233 cm-1
Data points,3476    

[Measurement Information]
Model Name,FT/IR-4700typeA
Serial Number,D056761788

Accessory,ATR PRO ONE
Accessory S/N,C174761809
Incident angle,45 deg

Measurement Date,4/24/2024 10:39 AM

Light Source,Standard
Detector,TGS
Accumulation,32
Resolution,4 cm-1
Zero Filling,On
Apodization,Cosine
Gain,Auto (4)
Aperture,Auto (7.1 mm)
Scanning Speed,Auto (2 mm/sec)
Filter,Auto (30000 Hz)

