TITLE,
DATA TYPE,INFRARED SPECTRUM
ORIGIN,JASCO
OWNER,
DATE,24/04/24
TIME,11:14:34
SPECTROMETER/DATA SYSTEM,
LOCALE,1033
RESOLUTION,
DELTAX,0.964233
XUNITS,1/CM
YUNITS,TRANSMITTANCE
FIRSTX,  649.8934
LASTX, 4000.6047
NPOINTS,    3476
FIRSTY,    97.13288
MAXY,   104.27563
MINY,    57.38188
XYDATA
649.8934,97.1329
650.8576,97.1842
651.8218,97.2767
652.7861,97.2924
653.7503,97.3024
654.7145,97.3191
655.6788,97.3424
656.6430,97.3624
657.6072,97.3627
658.5715,97.3367
659.5357,97.3002
660.4999,97.2842
661.4642,97.307
662.4284,97.3497
663.3926,97.3592
664.3569,97.267
665.3211,97.0058
666.2853,96.5358
667.2496,95.9232
668.2138,95.4343
669.1780,95.3608
670.1423,95.6559
671.1065,96.0507
672.0707,96.369
673.0350,96.5656
673.9992,96.6564
674.9634,96.6765
675.9277,96.6666
676.8919,96.6642
677.8561,96.6971
678.8204,96.7811
679.7846,96.9225
680.7488,97.1164
681.7131,97.3455
682.6773,97.5841
683.6415,97.8096
684.6058,98.0139
685.5700,98.2031
686.5342,98.3856
687.4985,98.5577
688.4627,98.6969
689.4269,98.7688
690.3912,98.747
691.3554,98.6437
692.3196,98.5367
693.2839,98.5499
694.2481,98.7622
695.2123,99.1345
696.1766,99.5529
697.1408,99.9067
698.1050,100.124
699.0693,100.178
700.0335,100.091
700.9977,99.9187
701.9620,99.7256
702.9262,99.5654
703.8904,99.4699
704.8547,99.4484
705.8189,99.4915
706.7831,99.5752
707.7474,99.6666
708.7116,99.7319
709.6758,99.7443
710.6401,99.6913
711.6043,99.5743
712.5685,99.4046
713.5328,99.1953
714.4970,98.9563
715.4612,98.8999
716.4255,98.6197
717.3897,98.3709
718.3539,98.203
719.3182,98.163
720.2824,98.27
721.2466,98.4988
722.2109,98.7892
723.1751,99.074
724.1393,99.3059
725.1036,99.4665
726.0678,99.5614
727.0320,99.6091
727.9963,99.631
728.9605,99.6435
729.9247,99.6529
730.8890,99.6543
731.8532,99.6331
732.8174,99.5701
733.7817,99.4478
734.7459,99.2544
735.7101,98.9853
736.6744,98.6398
737.6386,98.2203
738.6028,97.7339
739.5671,97.1965
740.5313,96.6355
741.4955,96.0867
742.4598,95.5865
743.4240,95.1635
744.3882,94.8331
745.3525,94.5987
746.3167,94.4563
747.2809,94.3985
748.2452,94.4155
749.2094,94.4941
750.1736,94.6172
751.1379,94.7665
752.1021,94.9259
753.0663,95.086
754.0306,95.2433
754.9948,95.3967
755.9590,95.5421
756.9233,95.6695
757.8875,95.7644
758.8517,95.8138
759.8160,95.8119
760.7802,95.7641
761.7444,95.6871
762.7087,95.6055
763.6729,95.5473
764.6371,95.5404
765.6014,95.6082
766.5656,95.7655
767.5298,96.0143
768.4941,96.3416
769.4583,96.7219
770.4225,97.1234
771.3868,97.5157
772.3510,97.8739
773.3152,98.1797
774.2795,98.4188
775.2437,98.5811
776.2079,98.6621
777.1722,98.6671
778.1364,98.6113
779.1006,98.5158
780.0649,98.3998
781.0291,98.274
781.9933,98.1407
782.9576,97.9977
783.9218,97.8452
784.8860,97.6886
785.8503,97.5372
786.8145,97.3988
787.7787,97.2767
788.7430,97.1699
789.7072,97.0758
790.6714,96.9932
791.6357,96.9219
792.5999,96.8605
793.5641,96.8039
794.5284,96.744
795.4926,96.6727
796.4568,96.586
797.4211,96.4859
798.3853,96.378
799.3495,96.2664
800.3138,96.1492
801.2780,96.0176
802.2422,95.8598
803.2065,95.6666
804.1707,95.437
805.1349,95.1778
806.0992,94.9014
807.0634,94.62
808.0276,94.343
808.9919,94.076
809.9561,93.8229
810.9203,93.5876
811.8846,93.3745
812.8488,93.1874
813.8130,93.0291
814.7773,92.901
815.7415,92.8035
816.7057,92.7364
817.6700,92.6979
818.6342,92.6838
819.5984,92.6881
820.5627,92.7044
821.5269,92.7292
822.4911,92.7632
823.4554,92.8105
824.4196,92.8752
825.3839,92.9586
826.3481,93.0563
827.3123,93.1594
828.2766,93.2572
829.2408,93.3395
830.2050,93.3983
831.1693,93.4278
832.1335,93.4225
833.0977,93.3767
834.0620,93.2857
835.0262,93.1479
835.9904,92.9673
836.9547,92.7533
837.9189,92.5176
838.8831,92.2694
839.8474,92.0124
840.8116,91.7453
841.7758,91.4662
842.7401,91.1775
843.7043,90.888
844.6685,90.6094
845.6328,90.3509
846.5970,90.1147
847.5612,89.8964
848.5255,89.6899
849.4897,89.4929
850.4539,89.3091
851.4182,89.146
852.3824,89.0109
853.3466,88.9068
854.3109,88.8328
855.2751,88.7858
856.2393,88.7628
857.2036,88.7615
858.1678,88.78
859.1320,88.8162
860.0963,88.8691
861.0605,88.9399
862.0247,89.0322
862.9890,89.1501
863.9532,89.2959
864.9174,89.4686
865.8817,89.664
866.8459,89.8774
867.8101,90.105
868.7744,90.345
869.7386,90.5957
870.7028,90.8533
871.6671,91.1097
872.6313,91.3512
873.5955,91.5614
874.5598,91.7254
875.5240,91.8366
876.4882,91.9008
877.4525,91.9351
878.4167,91.9621
879.3809,92.0001
880.3452,92.0557
881.3094,92.1232
882.2736,92.1904
883.2379,92.247
884.2021,92.2891
885.1663,92.319
886.1306,92.3404
887.0948,92.356
888.0590,92.3675
889.0233,92.3798
889.9875,92.4025
890.9517,92.4478
891.9160,92.5248
892.8802,92.6341
893.8444,92.7661
894.8087,92.905
895.7729,93.0345
896.7371,93.142
897.7014,93.2211
898.6656,93.2703
899.6298,93.2925
900.5941,93.2931
901.5583,93.2786
902.5225,93.2549
903.4868,93.2249
904.4510,93.1885
905.4152,93.1428
906.3795,93.084
907.3437,93.0088
908.3079,92.915
909.2722,92.8026
910.2364,92.6741
911.2006,92.5363
912.1649,92.3995
913.1291,92.2754
914.0933,92.1739
915.0576,92.1008
916.0218,92.0579
916.9860,92.0454
917.9503,92.0643
918.9145,92.1173
919.8787,92.2076
920.8430,92.3357
921.8072,92.4989
922.7714,92.6913
923.7357,92.9056
924.6999,93.1352
925.6641,93.375
926.6284,93.6225
927.5926,93.8789
928.5568,94.1492
929.5211,94.4411
930.4853,94.7628
931.4495,95.1196
932.4138,95.5126
933.3780,95.9378
934.3422,96.3878
935.3065,96.8524
936.2707,97.3191
937.2349,97.7724
938.1992,98.1952
939.1634,98.5719
940.1276,98.8927
941.0919,99.156
942.0561,99.3677
943.0203,99.5368
943.9846,99.6712
944.9488,99.7743
945.9130,99.8459
946.8773,99.9111
947.8415,100.014
948.8057,100.086
949.7700,100.128
950.7342,100.141
951.6984,100.126
952.6627,100.079
953.6269,99.9982
954.5911,99.8815
955.5554,99.7256
956.5196,99.5279
957.4838,99.2867
958.4481,99.0034
959.4123,98.6828
960.3765,98.333
961.3408,97.963
962.3050,97.5819
963.2692,97.1976
964.2335,96.8175
965.1977,96.4484
966.1619,96.0962
967.1262,95.7649
968.0904,95.4557
969.0546,95.168
970.0189,94.9
970.9831,94.6503
971.9473,94.4178
972.9116,94.2004
973.8758,93.994
974.8400,93.7921
975.8043,93.5863
976.7685,93.3674
977.7327,93.1264
978.6970,92.8553
979.6612,92.5472
980.6254,92.1984
981.5897,91.8087
982.5539,91.382
983.5181,90.9254
984.4824,90.4473
985.4466,89.9567
986.4108,89.4632
987.3751,88.979
988.3393,88.5194
989.3035,88.1024
990.2678,87.7445
991.2320,87.4561
992.1962,87.2379
993.1605,87.08
994.1247,86.9658
995.0889,86.8771
996.0532,86.7988
997.0174,86.7205
997.9816,86.635
998.9459,86.5351
999.9101,86.4109
1000.8743,86.2501
1001.8386,86.0397
1002.8028,85.7683
1003.7670,85.4275
1004.7313,85.0122
1005.6955,84.5198
1006.6597,83.9495
1007.6240,83.3014
1008.5882,82.576
1009.5524,81.7735
1010.5167,80.8945
1011.4809,79.9414
1012.4451,78.9204
1013.4094,77.8415
1014.3736,76.7167
1015.3378,75.5566
1016.3021,74.3692
1017.2663,73.1607
1018.2305,71.9381
1019.1948,70.7092
1020.1590,69.4783
1021.1232,68.243
1022.0875,66.9943
1023.0517,65.7268
1024.0160,64.4521
1024.9802,63.2077
1025.9445,62.0504
1026.9087,61.0367
1027.8729,60.1987
1028.8372,59.531
1029.8014,58.9972
1030.7656,58.5517
1031.7299,58.1633
1032.6941,57.8287
1033.6583,57.568
1034.6226,57.4112
1035.5868,57.3819
1036.5510,57.4879
1037.5153,57.7198
1038.4795,58.0538
1039.4437,58.4574
1040.4080,58.8966
1041.3722,59.3429
1042.3364,59.7797
1043.3007,60.2047
1044.2649,60.6263
1045.2291,61.0572
1046.1934,61.5074
1047.1576,61.9829
1048.1218,62.4877
1049.0861,63.0269
1050.0503,63.606
1051.0145,64.2258
1051.9788,64.8793
1052.9430,65.5523
1053.9072,66.2334
1054.8715,66.9241
1055.8357,67.6438
1056.7999,68.4183
1057.7642,69.2583
1058.7284,70.1367
1059.6926,70.9822
1060.6569,71.6991
1061.6211,72.2081
1062.5853,72.4873
1063.5496,72.5912
1064.5138,72.6302
1065.4780,72.7212
1066.4423,72.9324
1067.4065,73.2523
1068.3707,73.6011
1069.3350,73.8743
1070.2992,73.9936
1071.2634,73.9367
1072.2277,73.7348
1073.1919,73.4443
1074.1561,73.1155
1075.1204,72.7758
1076.0846,72.4314
1077.0488,72.0812
1078.0131,71.7284
1078.9773,71.384
1079.9415,71.0624
1080.9058,70.7737
1081.8700,70.5208
1082.8342,70.2989
1083.7985,70.1009
1084.7627,69.9217
1085.7269,69.7622
1086.6912,69.63
1087.6554,69.5355
1088.6196,69.4845
1089.5839,69.4715
1090.5481,69.4772
1091.5123,69.4738
1092.4766,69.4365
1093.4408,69.3549
1094.4050,69.2369
1095.3693,69.1052
1096.3335,68.9861
1097.2977,68.8994
1098.2620,68.8534
1099.2262,68.8466
1100.1904,68.8726
1101.1547,68.9268
1102.1189,69.0095
1103.0831,69.1269
1104.0474,69.2891
1105.0116,69.5074
1105.9758,69.7906
1106.9401,70.1425
1107.9043,70.5625
1108.8685,71.049
1109.8328,71.6034
1110.7970,72.2321
1111.7612,72.9444
1112.7255,73.7466
1113.6897,74.6372
1114.6539,75.6055
1115.6182,76.636
1116.5824,77.7158
1117.5466,78.8389
1118.5109,80.0068
1119.4751,81.2241
1120.4393,82.4925
1121.4036,83.8081
1122.3678,85.1608
1123.3320,86.5365
1124.2963,87.9188
1125.2605,89.2891
1126.2247,90.6265
1127.1890,91.9084
1128.1532,93.1126
1129.1174,94.2203
1130.0817,95.2176
1131.0459,96.0956
1132.0101,96.8477
1132.9744,97.4675
1133.9386,97.9483
1134.9028,98.2849
1135.8671,98.4762
1136.8313,98.506
1137.7955,98.3373
1138.7598,98.0525
1139.7240,97.6629
1140.6882,97.1767
1141.6525,96.6009
1142.6167,95.9457
1143.5809,95.2288
1144.5452,94.4769
1145.5094,93.7214
1146.4736,92.9928
1147.4379,92.3152
1148.4021,91.704
1149.3663,91.1677
1150.3306,90.7113
1151.2948,90.3376
1152.2590,90.0453
1153.2233,89.8268
1154.1875,89.6651
1155.1517,89.5362
1156.1160,89.413
1157.0802,89.27
1158.0444,89.0873
1159.0087,88.8509
1159.9729,88.5523
1160.9371,88.1881
1161.9014,87.7605
1162.8656,87.277
1163.8298,86.7502
1164.7941,86.1948
1165.7583,85.6252
1166.7225,85.0524
1167.6868,84.4845
1168.6510,83.9266
1169.6152,83.3815
1170.5795,82.85
1171.5437,82.3303
1172.5079,81.8182
1173.4722,81.3086
1174.4364,80.7976
1175.4006,80.2837
1176.3649,79.768
1177.3291,79.2525
1178.2933,78.7382
1179.2576,78.2241
1180.2218,77.7087
1181.1860,77.1912
1182.1503,76.6737
1183.1145,76.1608
1184.0787,75.6583
1185.0430,75.171
1186.0072,74.7002
1186.9714,74.2436
1187.9357,73.796
1188.8999,73.3514
1189.8641,72.9058
1190.8284,72.4584
1191.7926,72.0122
1192.7568,71.5725
1193.7211,71.1455
1194.6853,70.736
1195.6495,70.347
1196.6138,69.9791
1197.5780,69.6313
1198.5422,69.3019
1199.5065,69.0189
1200.4707,68.72
1201.4349,68.44
1202.3992,68.183
1203.3634,67.9544
1204.3276,67.7593
1205.2919,67.5999
1206.2561,67.4753
1207.2203,67.3819
1208.1846,67.3166
1209.1488,67.2789
1210.1130,67.2719
1211.0773,67.3002
1212.0415,67.3667
1213.0057,67.4703
1213.9700,67.6059
1214.9342,67.7673
1215.8984,67.9498
1216.8627,68.1513
1217.8269,68.371
1218.7911,68.6071
1219.7554,68.855
1220.7196,69.1091
1221.6838,69.364
1222.6481,69.6162
1223.6123,69.8636
1224.5765,70.1038
1225.5408,70.3323
1226.5050,70.5428
1227.4692,70.728
1228.4335,70.8823
1229.3977,71.0038
1230.3619,71.0962
1231.3262,71.1693
1232.2904,71.2375
1233.2546,71.3148
1234.2189,71.4084
1235.1831,71.5143
1236.1473,71.6183
1237.1116,71.7049
1238.0758,71.7694
1239.0400,71.825
1240.0043,71.8995
1240.9685,72.0219
1241.9327,72.2039
1242.8970,72.4309
1243.8612,72.6659
1244.8254,72.8672
1245.7897,73.0073
1246.7539,73.0827
1247.7181,73.1096
1248.6824,73.1095
1249.6466,73.096
1250.6108,73.0687
1251.5751,73.0172
1252.5393,72.93
1253.5035,72.8017
1254.4678,72.6355
1255.4320,72.4413
1256.3962,72.2332
1257.3605,72.0267
1258.3247,71.8386
1259.2889,71.685
1260.2532,71.579
1261.2174,71.5279
1262.1816,71.5317
1263.1459,71.5842
1264.1101,71.6756
1265.0743,71.7939
1266.0386,71.9268
1267.0028,72.0625
1267.9670,72.1931
1268.9313,72.3165
1269.8955,72.4372
1270.8597,72.5641
1271.8240,72.7064
1272.7882,72.8693
1273.7524,73.0533
1274.7167,73.256
1275.6809,73.4751
1276.6451,73.7107
1277.6094,73.9642
1278.5736,74.2358
1279.5378,74.5217
1280.5021,74.8145
1281.4663,75.1049
1282.4305,75.3857
1283.3948,75.654
1284.3590,75.9119
1285.3232,76.1651
1286.2875,76.4203
1287.2517,76.6833
1288.2159,76.9565
1289.1802,77.2388
1290.1444,77.5259
1291.1086,77.8131
1292.0729,78.0971
1293.0371,78.3781
1294.0013,78.6593
1294.9656,78.9445
1295.9298,79.2357
1296.8940,79.5308
1297.8583,79.8239
1298.8225,80.1063
1299.7867,80.3695
1300.7510,80.6078
1301.7152,80.8185
1302.6794,81.0041
1303.6437,81.1703
1304.6079,81.3232
1305.5721,81.4661
1306.5364,81.5973
1307.5006,81.7114
1308.4648,81.8025
1309.4291,81.869
1310.3933,81.9156
1311.3575,81.9516
1312.3218,81.9869
1313.2860,82.027
1314.2502,82.0714
1315.2145,82.1168
1316.1787,82.1607
1317.1429,82.205
1318.1072,82.2544
1319.0714,82.3119
1320.0356,82.375
1320.9999,82.4362
1321.9641,82.4868
1322.9283,82.5218
1323.8926,82.5416
1324.8568,82.5511
1325.8210,82.5574
1326.7853,82.568
1327.7495,82.5891
1328.7137,82.626
1329.6780,82.6821
1330.6422,82.7582
1331.6064,82.8495
1332.5707,82.9456
1333.5349,83.0322
1334.4991,83.0973
1335.4634,83.137
1336.4276,83.161
1337.3918,83.1931
1338.3561,83.2627
1339.3203,83.3838
1340.2845,83.5381
1341.2488,83.6849
1342.2130,83.7895
1343.1772,83.839
1344.1415,83.8377
1345.1057,83.7968
1346.0699,83.7285
1347.0342,83.644
1347.9984,83.5525
1348.9626,83.4597
1349.9269,83.3665
1350.8911,83.2709
1351.8553,83.1713
1352.8196,83.0707
1353.7838,82.9767
1354.7480,82.8978
1355.7123,82.8368
1356.6765,82.7872
1357.6407,82.7387
1358.6050,82.685
1359.5692,82.6317
1360.5334,82.6008
1361.4977,82.6235
1362.4619,82.7157
1363.4261,82.8566
1364.3904,83.0025
1365.3546,83.1223
1366.3188,83.2109
1367.2831,83.277
1368.2473,83.3281
1369.2115,83.3642
1370.1758,83.3807
1371.1400,83.3769
1372.1042,83.362
1373.0685,83.3569
1374.0327,83.3842
1374.9969,83.4517
1375.9612,83.5463
1376.9254,83.6508
1377.8896,83.7632
1378.8539,83.8958
1379.8181,84.0603
1380.7823,84.2543
1381.7466,84.4611
1382.7108,84.6654
1383.6750,84.868
1384.6393,85.0891
1385.6035,85.3531
1386.5677,85.6585
1387.5320,85.9493
1388.4962,86.1358
1389.4604,86.1603
1390.4247,86.0321
1391.3889,85.8061
1392.3531,85.5551
1393.3174,85.3576
1394.2816,85.2831
1395.2458,85.356
1396.2101,85.5255
1397.1743,85.6882
1398.1385,85.7553
1399.1028,85.6956
1400.0670,85.5295
1401.0313,85.2978
1401.9955,85.0379
1402.9597,84.7762
1403.9240,84.5318
1404.8882,84.3201
1405.8524,84.1488
1406.8167,84.014
1407.7809,83.9054
1408.7451,83.8169
1409.7094,83.7464
1410.6736,83.6896
1411.6378,83.6344
1412.6021,83.5653
1413.5663,83.4731
1414.5305,83.3591
1415.4948,83.2284
1416.4590,83.0841
1417.4232,82.932
1418.3875,82.7824
1419.3517,82.6281
1420.3159,82.4386
1421.2802,82.1966
1422.2444,81.9175
1423.2086,81.6318
1424.1729,81.3639
1425.1371,81.1244
1426.1013,80.9121
1427.0656,80.7194
1428.0298,80.5395
1428.9940,80.3725
1429.9583,80.2248
1430.9225,80.1033
1431.8867,80.0103
1432.8510,79.9419
1433.8152,79.8845
1434.7794,79.8138
1435.7437,79.7051
1436.7079,79.5445
1437.6721,79.3262
1438.6364,79.0508
1439.6006,78.7365
1440.5648,78.4125
1441.5291,78.1003
1442.4933,77.8065
1443.4575,77.525
1444.4218,77.2442
1445.3860,76.9525
1446.3502,76.644
1447.3145,76.3217
1448.2787,75.9953
1449.2429,75.6751
1450.2072,75.3706
1451.1714,75.0952
1452.1356,74.8649
1453.0999,74.6859
1454.0641,74.5415
1455.0283,74.4018
1455.9926,74.2825
1456.9568,74.2829
1457.9210,74.4078
1458.8853,74.4859
1459.8495,74.4398
1460.8137,74.3472
1461.7780,74.321
1462.7422,74.4621
1463.7064,74.8564
1464.6707,75.5268
1465.6349,76.3636
1466.5991,77.1851
1467.5634,77.8959
1468.5276,78.5272
1469.4918,79.1643
1470.4561,79.891
1471.4203,80.7731
1472.3845,81.8193
1473.3488,82.8946
1474.3130,83.7563
1475.2772,84.2686
1476.2415,84.4721
1477.2057,84.473
1478.1699,84.3655
1479.1342,84.2276
1480.0984,84.1315
1481.0626,84.137
1482.0269,84.2701
1482.9911,84.5108
1483.9553,84.8071
1484.9196,85.1015
1485.8838,85.3484
1486.8480,85.5227
1487.8123,85.636
1488.7765,85.7385
1489.7407,85.8557
1490.7050,85.9357
1491.6692,85.9219
1492.6334,85.8155
1493.5977,85.6405
1494.5619,85.3981
1495.5261,85.0625
1496.4904,84.6151
1497.4546,84.0829
1498.4188,83.5218
1499.3831,82.9711
1500.3473,82.4617
1501.3115,82.0338
1502.2758,81.7199
1503.2400,81.5121
1504.2042,81.3352
1505.1685,81.0531
1506.1327,80.5983
1507.0969,80.174
1508.0612,79.9858
1509.0254,79.8799
1509.9896,79.7036
1510.9539,79.4703
1511.9181,79.243
1512.8823,79.086
1513.8466,79.0753
1514.8108,79.2967
1515.7750,79.804
1516.7393,80.5782
1517.7035,81.5557
1518.6677,82.7163
1519.6320,84.115
1520.5962,85.7827
1521.5604,87.5804
1522.5247,89.2401
1523.4889,90.5983
1524.4531,91.7116
1525.4174,92.7326
1526.3816,93.7371
1527.3458,94.6762
1528.3101,95.4628
1529.2743,96.0702
1530.2385,96.5505
1531.2028,96.9951
1532.1670,97.482
1533.1312,98.0193
1534.0955,98.529
1535.0597,98.932
1536.0239,99.2276
1536.9882,99.4532
1537.9524,99.5947
1538.9166,99.5738
1539.8809,99.4036
1540.8451,99.3542
1541.8093,99.6027
1542.7736,99.9529
1543.7378,100.23
1544.7020,100.41
1545.6663,100.506
1546.6305,100.524
1547.5947,100.479
1548.5590,100.395
1549.5232,100.292
1550.4874,100.176
1551.4517,100.036
1552.4159,99.8747
1553.3801,99.7167
1554.3444,99.5999
1555.3086,99.5351
1556.2728,99.4737
1557.2371,99.351
1558.2013,99.2551
1559.1655,99.2517
1560.1298,99.1165
1561.0940,98.7076
1562.0582,98.161
1563.0225,97.6388
1563.9867,97.2159
1564.9509,96.8931
1565.9152,96.6258
1566.8794,96.3482
1567.8436,96.0039
1568.8079,95.5829
1569.7721,95.1269
1570.7363,94.6902
1571.7006,94.3039
1572.6648,93.9612
1573.6290,93.6077
1574.5933,93.1557
1575.5575,92.5597
1576.5217,91.8945
1577.4860,91.2772
1578.4502,90.7317
1579.4144,90.2182
1580.3787,89.7017
1581.3429,89.16
1582.3071,88.5812
1583.2714,87.9696
1584.2356,87.3425
1585.1998,86.7142
1586.1641,86.0868
1587.1283,85.4572
1588.0925,84.8276
1589.0568,84.2083
1590.0210,83.6111
1590.9852,83.0425
1591.9495,82.5057
1592.9137,82.008
1593.8779,81.5636
1594.8422,81.1874
1595.8064,80.8837
1596.7706,80.6419
1597.7349,80.4444
1598.6991,80.2768
1599.6633,80.1332
1600.6276,80.0158
1601.5918,79.9299
1602.5560,79.8778
1603.5203,79.8552
1604.4845,79.8532
1605.4487,79.8666
1606.4130,79.9004
1607.3772,79.9705
1608.3414,80.0923
1609.3057,80.2627
1610.2699,80.4561
1611.2341,80.6475
1612.1984,80.8381
1613.1626,81.0587
1614.1268,81.3613
1615.0911,81.8096
1616.0553,82.4263
1617.0195,83.1025
1617.9838,83.6515
1618.9480,84.0066
1619.9122,84.257
1620.8765,84.5312
1621.8407,84.9116
1622.8049,85.4046
1623.7692,85.9456
1624.7334,86.4504
1625.6976,86.8885
1626.6619,87.2933
1627.6261,87.7029
1628.5903,88.1122
1629.5546,88.4863
1630.5188,88.8084
1631.4830,89.0973
1632.4473,89.379
1633.4115,89.6566
1634.3757,89.9253
1635.3400,90.2172
1636.3042,90.547
1637.2684,90.8228
1638.2327,90.9685
1639.1969,91.021
1640.1611,91.0557
1641.1254,91.1203
1642.0896,91.2244
1643.0538,91.3417
1644.0181,91.4119
1644.9823,91.3731
1645.9465,91.2393
1646.9108,91.121
1647.8750,91.1048
1648.8392,91.204
1649.8035,91.4113
1650.7677,91.6839
1651.7319,91.914
1652.6962,92.0102
1653.6604,91.9786
1654.6246,91.7761
1655.5889,91.383
1656.5531,90.9345
1657.5173,90.57
1658.4816,90.3361
1659.4458,90.1977
1660.4100,90.0838
1661.3743,89.9415
1662.3385,89.7665
1663.3027,89.5812
1664.2670,89.4021
1665.2312,89.2357
1666.1954,89.0731
1667.1597,88.8822
1668.1239,88.6314
1669.0881,88.3398
1670.0524,88.0816
1671.0166,87.9086
1671.9808,87.8106
1672.9451,87.7524
1673.9093,87.6941
1674.8735,87.5861
1675.8378,87.3807
1676.8020,87.0672
1677.7662,86.6935
1678.7305,86.3437
1679.6947,86.086
1680.6589,85.9301
1681.6232,85.8167
1682.5874,85.6593
1683.5516,85.432
1684.5159,85.166
1685.4801,84.8448
1686.4443,84.4487
1687.4086,84.0194
1688.3728,83.6168
1689.3370,83.2794
1690.3013,83.0192
1691.2655,82.8263
1692.2297,82.668
1693.1940,82.4916
1694.1582,82.2391
1695.1224,81.8847
1696.0867,81.4779
1697.0509,81.1457
1698.0151,81.0041
1698.9794,81.0333
1699.9436,81.0706
1700.9078,80.964
1701.8721,80.7007
1702.8363,80.3825
1703.8005,80.1319
1704.7648,80.0278
1705.7290,80.0816
1706.6932,80.2408
1707.6575,80.4257
1708.6217,80.5842
1709.5859,80.7157
1710.5502,80.8492
1711.5144,81.0089
1712.4786,81.199
1713.4429,81.4138
1714.4071,81.6701
1715.3713,82.0506
1716.3356,82.6764
1717.2998,83.5087
1718.2640,84.2661
1719.2283,84.7386
1720.1925,84.977
1721.1567,85.1448
1722.1210,85.3665
1723.0852,85.6843
1724.0494,86.0719
1725.0137,86.4713
1725.9779,86.832
1726.9421,87.1374
1727.9064,87.4047
1728.8706,87.668
1729.8348,87.9612
1730.7991,88.3128
1731.7633,88.7502
1732.7275,89.289
1733.6918,89.8673
1734.6560,90.3257
1735.6202,90.5624
1736.5845,90.6417
1737.5487,90.7015
1738.5129,90.8382
1739.4772,91.0694
1740.4414,91.349
1741.4056,91.6081
1742.3699,91.8036
1743.3341,91.9415
1744.2983,92.0583
1745.2626,92.189
1746.2268,92.3541
1747.1910,92.5704
1748.1553,92.8655
1749.1195,93.2591
1750.0837,93.7065
1751.0480,94.0964
1752.0122,94.3459
1752.9764,94.4645
1753.9407,94.5197
1754.9049,94.576
1755.8691,94.6652
1756.8334,94.7878
1757.7976,94.9293
1758.7618,95.0794
1759.7261,95.2394
1760.6903,95.415
1761.6545,95.6013
1762.6188,95.7788
1763.5830,95.9291
1764.5472,96.0531
1765.5115,96.1688
1766.4757,96.2922
1767.4399,96.4226
1768.4042,96.5451
1769.3684,96.6479
1770.3326,96.7469
1771.2969,96.8891
1772.2611,97.1049
1773.2253,97.3523
1774.1896,97.5541
1775.1538,97.6841
1776.1180,97.779
1777.0823,97.8884
1778.0465,98.0373
1779.0107,98.2207
1779.9750,98.4183
1780.9392,98.6116
1781.9034,98.7923
1782.8677,98.9578
1783.8319,99.1012
1784.7961,99.2093
1785.7604,99.2743
1786.7246,99.3062
1787.6888,99.3306
1788.6531,99.3679
1789.6173,99.4176
1790.5815,99.4639
1791.5458,99.4997
1792.5100,99.5279
1793.4742,99.538
1794.4385,99.5178
1795.4027,99.4844
1796.3669,99.4721
1797.3312,99.5006
1798.2954,99.5645
1799.2596,99.6448
1800.2239,99.724
1801.1881,99.79
1802.1523,99.8348
1803.1166,99.8557
1804.0808,99.8573
1805.0450,99.8474
1806.0093,99.8314
1806.9735,99.8113
1807.9377,99.789
1808.9020,99.7712
1809.8662,99.7694
1810.8304,99.7909
1811.7947,99.8301
1812.7589,99.8734
1813.7231,99.9101
1814.6874,99.9365
1815.6516,99.952
1816.6158,99.9552
1817.5801,99.9456
1818.5443,99.9258
1819.5085,99.9032
1820.4728,99.887
1821.4370,99.8832
1822.4012,99.8897
1823.3655,99.8972
1824.3297,99.8939
1825.2939,99.8711
1826.2582,99.8287
1827.2224,99.7775
1828.1866,99.7372
1829.1509,99.7265
1830.1151,99.7454
1831.0793,99.7672
1832.0436,99.7615
1833.0078,99.7242
1833.9720,99.6738
1834.9363,99.6288
1835.9005,99.5954
1836.8647,99.5863
1837.8290,99.6051
1838.7932,99.6352
1839.7574,99.6873
1840.7217,99.7644
1841.6859,99.8501
1842.6501,99.9153
1843.6144,99.9421
1844.5786,99.9343
1845.5428,99.9035
1846.5071,99.8625
1847.4713,99.8306
1848.4355,99.8263
1849.3998,99.8531
1850.3640,99.8975
1851.3282,99.9396
1852.2925,99.9668
1853.2567,99.978
1854.2209,99.9795
1855.1852,99.9774
1856.1494,99.9745
1857.1136,99.9714
1858.0779,99.9697
1859.0421,99.9723
1860.0063,99.9796
1860.9706,99.9868
1861.9348,99.9859
1862.8990,99.9717
1863.8633,99.9449
1864.8275,99.9097
1865.7917,99.8722
1866.7560,99.8465
1867.7202,99.8591
1868.6844,99.9272
1869.6487,100.027
1870.6129,100.108
1871.5771,100.147
1872.5414,100.156
1873.5056,100.156
1874.4698,100.162
1875.4341,100.174
1876.3983,100.188
1877.3625,100.2
1878.3268,100.209
1879.2910,100.216
1880.2552,100.221
1881.2195,100.223
1882.1837,100.22
1883.1479,100.213
1884.1122,100.206
1885.0764,100.205
1886.0406,100.214
1887.0049,100.231
1887.9691,100.253
1888.9333,100.275
1889.8976,100.288
1890.8618,100.288
1891.8260,100.276
1892.7903,100.259
1893.7545,100.249
1894.7188,100.253
1895.6830,100.273
1896.6472,100.301
1897.6115,100.328
1898.5757,100.345
1899.5399,100.351
1900.5042,100.35
1901.4684,100.347
1902.4326,100.342
1903.3969,100.334
1904.3611,100.321
1905.3253,100.3
1906.2896,100.275
1907.2538,100.253
1908.2180,100.242
1909.1823,100.249
1910.1465,100.272
1911.1107,100.3
1912.0750,100.324
1913.0392,100.346
1914.0034,100.37
1914.9677,100.399
1915.9319,100.428
1916.8961,100.447
1917.8604,100.445
1918.8246,100.417
1919.7888,100.368
1920.7531,100.317
1921.7173,100.285
1922.6815,100.285
1923.6458,100.315
1924.6100,100.359
1925.5742,100.399
1926.5385,100.425
1927.5027,100.439
1928.4669,100.445
1929.4312,100.45
1930.3954,100.455
1931.3596,100.462
1932.3239,100.47
1933.2881,100.481
1934.2523,100.494
1935.2166,100.507
1936.1808,100.517
1937.1450,100.522
1938.1093,100.522
1939.0735,100.519
1940.0377,100.513
1941.0020,100.505
1941.9662,100.501
1942.9304,100.506
1943.8947,100.519
1944.8589,100.539
1945.8231,100.563
1946.7874,100.593
1947.7516,100.625
1948.7158,100.656
1949.6801,100.68
1950.6443,100.695
1951.6085,100.703
1952.5728,100.709
1953.5370,100.719
1954.5012,100.736
1955.4655,100.756
1956.4297,100.777
1957.3939,100.796
1958.3582,100.811
1959.3224,100.824
1960.2866,100.835
1961.2509,100.844
1962.2151,100.848
1963.1793,100.847
1964.1436,100.843
1965.1078,100.841
1966.0720,100.848
1967.0363,100.867
1968.0005,100.899
1968.9647,100.935
1969.9290,100.968
1970.8932,100.993
1971.8574,101.011
1972.8217,101.024
1973.7859,101.034
1974.7501,101.045
1975.7144,101.054
1976.6786,101.062
1977.6428,101.069
1978.6071,101.074
1979.5713,101.079
1980.5355,101.085
1981.4998,101.092
1982.4640,101.101
1983.4282,101.108
1984.3925,101.112
1985.3567,101.112
1986.3209,101.109
1987.2852,101.105
1988.2494,101.102
1989.2136,101.103
1990.1779,101.11
1991.1421,101.123
1992.1063,101.142
1993.0706,101.162
1994.0348,101.178
1994.9990,101.188
1995.9633,101.192
1996.9275,101.192
1997.8917,101.194
1998.8560,101.198
1999.8202,101.206
2000.7844,101.217
2001.7487,101.227
2002.7129,101.233
2003.6771,101.234
2004.6414,101.23
2005.6056,101.224
2006.5698,101.219
2007.5341,101.218
2008.4983,101.222
2009.4625,101.23
2010.4268,101.239
2011.3910,101.246
2012.3552,101.25
2013.3195,101.248
2014.2837,101.243
2015.2479,101.236
2016.2122,101.231
2017.1764,101.233
2018.1406,101.241
2019.1049,101.253
2020.0691,101.266
2021.0333,101.278
2021.9976,101.287
2022.9618,101.295
2023.9260,101.302
2024.8903,101.308
2025.8545,101.314
2026.8187,101.32
2027.7830,101.325
2028.7472,101.329
2029.7114,101.331
2030.6757,101.333
2031.6399,101.334
2032.6041,101.336
2033.5684,101.339
2034.5326,101.345
2035.4968,101.351
2036.4611,101.356
2037.4253,101.356
2038.3895,101.353
2039.3538,101.346
2040.3180,101.339
2041.2822,101.337
2042.2465,101.341
2043.2107,101.352
2044.1749,101.367
2045.1392,101.382
2046.1034,101.393
2047.0676,101.401
2048.0320,101.405
2048.9961,101.406
2049.9604,101.408
2050.9246,101.41
2051.8889,101.414
2052.8530,101.419
2053.8174,101.425
2054.7815,101.429
2055.7458,101.432
2056.7100,101.434
2057.6743,101.436
2058.6384,101.439
2059.6028,101.441
2060.5669,101.442
2061.5313,101.441
2062.4954,101.439
2063.4597,101.44
2064.4238,101.448
2065.3882,101.462
2066.3523,101.483
2067.3167,101.506
2068.2808,101.527
2069.2451,101.544
2070.2092,101.557
2071.1736,101.568
2072.1377,101.576
2073.1021,101.583
2074.0662,101.591
2075.0305,101.6
2075.9946,101.61
2076.9590,101.621
2077.9231,101.633
2078.8875,101.644
2079.8516,101.654
2080.8159,101.663
2081.7800,101.672
2082.7444,101.682
2083.7085,101.692
2084.6729,101.703
2085.6370,101.712
2086.6013,101.721
2087.5654,101.728
2088.5298,101.735
2089.4939,101.742
2090.4583,101.749
2091.4224,101.757
2092.3867,101.767
2093.3508,101.779
2094.3152,101.792
2095.2793,101.806
2096.2437,101.82
2097.2078,101.831
2098.1721,101.838
2099.1362,101.843
2100.1006,101.844
2101.0647,101.846
2102.0291,101.851
2102.9932,101.858
2103.9575,101.867
2104.9216,101.878
2105.8860,101.888
2106.8501,101.895
2107.8145,101.901
2108.7786,101.904
2109.7429,101.906
2110.7070,101.908
2111.6714,101.91
2112.6355,101.913
2113.5999,101.918
2114.5640,101.925
2115.5283,101.935
2116.4924,101.945
2117.4568,101.954
2118.4209,101.961
2119.3853,101.966
2120.3494,101.968
2121.3137,101.97
2122.2778,101.974
2123.2422,101.979
2124.2063,101.986
2125.1707,101.994
2126.1348,102.003
2127.0991,102.013
2128.0632,102.024
2129.0276,102.036
2129.9917,102.049
2130.9561,102.06
2131.9202,102.069
2132.8845,102.075
2133.8486,102.081
2134.8130,102.087
2135.7771,102.096
2136.7415,102.11
2137.7056,102.126
2138.6699,102.144
2139.6340,102.16
2140.5984,102.174
2141.5625,102.184
2142.5269,102.194
2143.4910,102.206
2144.4553,102.22
2145.4194,102.236
2146.3838,102.252
2147.3479,102.266
2148.3123,102.278
2149.2764,102.287
2150.2407,102.295
2151.2048,102.303
2152.1692,102.311
2153.1333,102.32
2154.0977,102.331
2155.0618,102.343
2156.0261,102.356
2156.9902,102.371
2157.9546,102.385
2158.9187,102.399
2159.8831,102.412
2160.8472,102.423
2161.8115,102.434
2162.7756,102.444
2163.7400,102.454
2164.7041,102.464
2165.6685,102.474
2166.6326,102.483
2167.5969,102.492
2168.5610,102.5
2169.5254,102.508
2170.4895,102.515
2171.4539,102.521
2172.4180,102.528
2173.3823,102.535
2174.3464,102.542
2175.3108,102.549
2176.2749,102.558
2177.2393,102.566
2178.2034,102.574
2179.1677,102.581
2180.1318,102.586
2181.0962,102.589
2182.0603,102.59
2183.0247,102.591
2183.9888,102.592
2184.9531,102.596
2185.9172,102.604
2186.8816,102.617
2187.8457,102.632
2188.8101,102.649
2189.7742,102.664
2190.7385,102.677
2191.7026,102.688
2192.6670,102.697
2193.6311,102.706
2194.5955,102.716
2195.5596,102.727
2196.5239,102.736
2197.4880,102.743
2198.4524,102.749
2199.4165,102.753
2200.3809,102.757
2201.3450,102.763
2202.3093,102.771
2203.2734,102.779
2204.2378,102.788
2205.2019,102.796
2206.1663,102.805
2207.1304,102.815
2208.0947,102.826
2209.0588,102.837
2210.0232,102.848
2210.9873,102.856
2211.9517,102.86
2212.9158,102.861
2213.8801,102.862
2214.8442,102.864
2215.8086,102.868
2216.7727,102.876
2217.7371,102.885
2218.7012,102.894
2219.6655,102.902
2220.6296,102.908
2221.5940,102.914
2222.5581,102.92
2223.5225,102.927
2224.4866,102.934
2225.4509,102.939
2226.4150,102.941
2227.3794,102.94
2228.3435,102.937
2229.3079,102.935
2230.2720,102.933
2231.2363,102.933
2232.2004,102.932
2233.1648,102.931
2234.1289,102.931
2235.0933,102.934
2236.0574,102.938
2237.0217,102.944
2237.9858,102.947
2238.9502,102.947
2239.9143,102.943
2240.8787,102.935
2241.8428,102.926
2242.8071,102.92
2243.7712,102.916
2244.7356,102.915
2245.6997,102.915
2246.6641,102.916
2247.6282,102.914
2248.5925,102.911
2249.5566,102.907
2250.5210,102.902
2251.4851,102.896
2252.4495,102.888
2253.4136,102.879
2254.3779,102.869
2255.3420,102.858
2256.3064,102.848
2257.2705,102.84
2258.2349,102.834
2259.1990,102.83
2260.1633,102.827
2261.1274,102.826
2262.0918,102.823
2263.0559,102.82
2264.0203,102.818
2264.9844,102.815
2265.9487,102.814
2266.9128,102.811
2267.8772,102.807
2268.8413,102.801
2269.8057,102.794
2270.7698,102.788
2271.7341,102.786
2272.6982,102.788
2273.6626,102.795
2274.6267,102.804
2275.5911,102.816
2276.5552,102.831
2277.5195,102.848
2278.4836,102.868
2279.4480,102.888
2280.4121,102.907
2281.3765,102.919
2282.3406,102.924
2283.3049,102.917
2284.2690,102.901
2285.2334,102.876
2286.1975,102.847
2287.1619,102.816
2288.1260,102.785
2289.0903,102.755
2290.0544,102.726
2291.0188,102.695
2291.9829,102.663
2292.9473,102.635
2293.9114,102.613
2294.8757,102.602
2295.8398,102.602
2296.8042,102.613
2297.7683,102.631
2298.7327,102.658
2299.6968,102.692
2300.6611,102.735
2301.6252,102.788
2302.5896,102.844
2303.5537,102.896
2304.5181,102.937
2305.4822,102.961
2306.4465,102.973
2307.4106,102.983
2308.3750,103.005
2309.3391,103.051
2310.3035,103.125
2311.2676,103.218
2312.2319,103.315
2313.1960,103.401
2314.1604,103.472
2315.1245,103.532
2316.0889,103.592
2317.0530,103.664
2318.0173,103.751
2318.9814,103.842
2319.9458,103.912
2320.9099,103.928
2321.8743,103.861
2322.8384,103.703
2323.8027,103.48
2324.7668,103.245
2325.7312,103.061
2326.6953,102.973
2327.6597,102.991
2328.6238,103.083
2329.5881,103.183
2330.5522,103.22
2331.5166,103.153
2332.4807,102.991
2333.4451,102.783
2334.4092,102.591
2335.3735,102.459
2336.3376,102.395
2337.3020,102.373
2338.2661,102.347
2339.2305,102.284
2340.1946,102.185
2341.1589,102.109
2342.1230,102.155
2343.0874,102.39
2344.0515,102.73
2345.0159,102.955
2345.9800,102.923
2346.9443,102.695
2347.9084,102.448
2348.8728,102.331
2349.8369,102.391
2350.8013,102.566
2351.7654,102.719
2352.7297,102.724
2353.6938,102.555
2354.6582,102.298
2355.6223,102.044
2356.5867,101.812
2357.5508,101.587
2358.5151,101.392
2359.4792,101.276
2360.4436,101.264
2361.4077,101.336
2362.3721,101.462
2363.3362,101.637
2364.3005,101.872
2365.2646,102.166
2366.2290,102.499
2367.1931,102.839
2368.1575,103.163
2369.1216,103.459
2370.0859,103.719
2371.0500,103.938
2372.0144,104.11
2372.9785,104.226
2373.9429,104.276
2374.9070,104.251
2375.8713,104.152
2376.8354,103.989
2377.7998,103.783
2378.7639,103.561
2379.7283,103.35
2380.6924,103.17
2381.6567,103.03
2382.6208,102.932
2383.5852,102.871
2384.5493,102.838
2385.5137,102.824
2386.4778,102.821
2387.4421,102.822
2388.4063,102.823
2389.3706,102.82
2390.3347,102.812
2391.2991,102.801
2392.2632,102.789
2393.2275,102.778
2394.1917,102.769
2395.1560,102.761
2396.1201,102.755
2397.0845,102.749
2398.0486,102.743
2399.0129,102.737
2399.9771,102.732
2400.9414,102.724
2401.9055,102.714
2402.8699,102.701
2403.8340,102.686
2404.7983,102.673
2405.7625,102.662
2406.7268,102.654
2407.6909,102.647
2408.6553,102.639
2409.6194,102.629
2410.5837,102.617
2411.5479,102.606
2412.5122,102.596
2413.4763,102.588
2414.4407,102.581
2415.4048,102.574
2416.3691,102.568
2417.3333,102.561
2418.2976,102.556
2419.2617,102.551
2420.2261,102.545
2421.1902,102.537
2422.1545,102.526
2423.1187,102.512
2424.0830,102.498
2425.0471,102.487
2426.0115,102.479
2426.9756,102.474
2427.9399,102.472
2428.9041,102.47
2429.8684,102.467
2430.8325,102.461
2431.7969,102.453
2432.7610,102.442
2433.7253,102.429
2434.6895,102.414
2435.6538,102.397
2436.6179,102.383
2437.5823,102.372
2438.5464,102.366
2439.5107,102.365
2440.4749,102.367
2441.4392,102.369
2442.4033,102.369
2443.3677,102.365
2444.3318,102.357
2445.2961,102.346
2446.2603,102.331
2447.2246,102.315
2448.1887,102.297
2449.1531,102.278
2450.1172,102.259
2451.0815,102.241
2452.0457,102.226
2453.0100,102.215
2453.9741,102.208
2454.9385,102.202
2455.9026,102.198
2456.8669,102.191
2457.8311,102.181
2458.7954,102.168
2459.7595,102.151
2460.7239,102.134
2461.6880,102.117
2462.6523,102.102
2463.6165,102.09
2464.5808,102.079
2465.5449,102.07
2466.5093,102.06
2467.4734,102.049
2468.4377,102.035
2469.4019,102.02
2470.3662,102.004
2471.3303,101.99
2472.2947,101.977
2473.2588,101.965
2474.2231,101.956
2475.1873,101.949
2476.1516,101.943
2477.1157,101.937
2478.0801,101.93
2479.0442,101.92
2480.0085,101.907
2480.9727,101.892
2481.9370,101.874
2482.9011,101.858
2483.8655,101.843
2484.8296,101.832
2485.7939,101.823
2486.7581,101.813
2487.7224,101.804
2488.6865,101.792
2489.6509,101.78
2490.6150,101.768
2491.5793,101.755
2492.5435,101.744
2493.5078,101.733
2494.4719,101.723
2495.4363,101.715
2496.4004,101.707
2497.3647,101.7
2498.3289,101.691
2499.2932,101.68
2500.2573,101.664
2501.2217,101.647
2502.1858,101.631
2503.1501,101.617
2504.1143,101.609
2505.0786,101.604
2506.0427,101.6
2507.0071,101.595
2507.9712,101.586
2508.9355,101.571
2509.8997,101.552
2510.8640,101.53
2511.8281,101.509
2512.7925,101.493
2513.7566,101.484
2514.7209,101.48
2515.6851,101.479
2516.6494,101.477
2517.6135,101.472
2518.5779,101.461
2519.5420,101.445
2520.5063,101.428
2521.4705,101.411
2522.4348,101.396
2523.3989,101.384
2524.3633,101.372
2525.3274,101.361
2526.2917,101.349
2527.2559,101.337
2528.2202,101.324
2529.1843,101.31
2530.1487,101.295
2531.1128,101.279
2532.0771,101.263
2533.0413,101.248
2534.0056,101.236
2534.9697,101.227
2535.9341,101.22
2536.8982,101.214
2537.8625,101.208
2538.8267,101.199
2539.7910,101.189
2540.7551,101.176
2541.7195,101.161
2542.6836,101.147
2543.6479,101.134
2544.6121,101.125
2545.5764,101.121
2546.5405,101.119
2547.5049,101.118
2548.4690,101.114
2549.4333,101.105
2550.3975,101.093
2551.3618,101.08
2552.3259,101.068
2553.2903,101.059
2554.2544,101.053
2555.2188,101.048
2556.1829,101.044
2557.1472,101.039
2558.1113,101.034
2559.0757,101.028
2560.0398,101.021
2561.0042,101.01
2561.9683,100.997
2562.9326,100.981
2563.8967,100.963
2564.8611,100.947
2565.8252,100.934
2566.7896,100.926
2567.7537,100.922
2568.7180,100.921
2569.6821,100.92
2570.6465,100.917
2571.6106,100.909
2572.5750,100.898
2573.5391,100.882
2574.5034,100.864
2575.4675,100.844
2576.4319,100.826
2577.3960,100.81
2578.3604,100.798
2579.3245,100.791
2580.2888,100.788
2581.2529,100.787
2582.2173,100.786
2583.1814,100.781
2584.1458,100.771
2585.1099,100.757
2586.0742,100.739
2587.0383,100.72
2588.0027,100.702
2588.9668,100.686
2589.9312,100.672
2590.8953,100.66
2591.8596,100.649
2592.8237,100.638
2593.7881,100.626
2594.7522,100.612
2595.7166,100.597
2596.6807,100.583
2597.6450,100.571
2598.6091,100.563
2599.5735,100.557
2600.5376,100.553
2601.5020,100.549
2602.4661,100.541
2603.4304,100.532
2604.3945,100.52
2605.3589,100.508
2606.3230,100.498
2607.2874,100.49
2608.2515,100.484
2609.2158,100.478
2610.1799,100.471
2611.1443,100.462
2612.1084,100.451
2613.0728,100.439
2614.0369,100.428
2615.0012,100.419
2615.9653,100.412
2616.9297,100.407
2617.8938,100.401
2618.8582,100.392
2619.8223,100.381
2620.7866,100.367
2621.7507,100.353
2622.7151,100.338
2623.6792,100.325
2624.6436,100.312
2625.6077,100.302
2626.5720,100.293
2627.5361,100.287
2628.5005,100.282
2629.4646,100.277
2630.4290,100.269
2631.3931,100.259
2632.3574,100.247
2633.3215,100.235
2634.2859,100.224
2635.2500,100.214
2636.2144,100.205
2637.1785,100.197
2638.1428,100.191
2639.1069,100.186
2640.0713,100.184
2641.0354,100.183
2641.9998,100.182
2642.9639,100.178
2643.9282,100.172
2644.8923,100.164
2645.8567,100.154
2646.8208,100.145
2647.7852,100.136
2648.7493,100.127
2649.7136,100.117
2650.6777,100.104
2651.6421,100.09
2652.6062,100.077
2653.5706,100.066
2654.5347,100.061
2655.4990,100.06
2656.4631,100.061
2657.4275,100.062
2658.3916,100.061
2659.3560,100.058
2660.3201,100.054
2661.2844,100.049
2662.2485,100.043
2663.2129,100.037
2664.1770,100.031
2665.1414,100.026
2666.1055,100.023
2667.0698,100.022
2668.0339,100.024
2668.9983,100.025
2669.9624,100.026
2670.9268,100.025
2671.8909,100.022
2672.8552,100.019
2673.8193,100.017
2674.7837,100.017
2675.7478,100.018
2676.7122,100.017
2677.6763,100.013
2678.6406,100.004
2679.6047,99.9875
2680.5691,99.9668
2681.5332,99.9445
2682.4976,99.9242
2683.4617,99.9083
2684.4260,99.8969
2685.3901,99.8887
2686.3545,99.8812
2687.3186,99.8726
2688.2830,99.8622
2689.2471,99.851
2690.2114,99.84
2691.1755,99.8301
2692.1399,99.8213
2693.1040,99.8127
2694.0684,99.8032
2695.0325,99.7925
2695.9968,99.7814
2696.9609,99.7708
2697.9253,99.7616
2698.8894,99.7534
2699.8538,99.7451
2700.8179,99.7353
2701.7822,99.7233
2702.7463,99.7093
2703.7107,99.6941
2704.6748,99.678
2705.6392,99.6608
2706.6033,99.6418
2707.5676,99.621
2708.5317,99.5994
2709.4961,99.5788
2710.4602,99.5609
2711.4246,99.5461
2712.3887,99.5329
2713.3530,99.519
2714.3171,99.5023
2715.2815,99.482
2716.2456,99.459
2717.2100,99.4357
2718.1741,99.4142
2719.1384,99.396
2720.1025,99.3809
2721.0669,99.3674
2722.0310,99.3532
2722.9954,99.3362
2723.9595,99.3155
2724.9238,99.2922
2725.8879,99.268
2726.8523,99.2453
2727.8164,99.2255
2728.7808,99.2092
2729.7449,99.196
2730.7092,99.1854
2731.6733,99.1767
2732.6377,99.169
2733.6018,99.1611
2734.5662,99.1509
2735.5303,99.1368
2736.4946,99.1185
2737.4587,99.0977
2738.4231,99.0778
2739.3872,99.0622
2740.3516,99.0535
2741.3157,99.0515
2742.2800,99.0543
2743.2441,99.0586
2744.2085,99.0614
2745.1726,99.0604
2746.1370,99.061
2747.1011,99.0644
2748.0654,99.0637
2749.0295,99.0609
2749.9939,99.0586
2750.9580,99.0592
2751.9224,99.0643
2752.8865,99.0733
2753.8508,99.0836
2754.8149,99.0918
2755.7793,99.0949
2756.7434,99.0915
2757.7078,99.0825
2758.6719,99.0701
2759.6362,99.0575
2760.6003,99.0471
2761.5647,99.0404
2762.5288,99.0373
2763.4932,99.0366
2764.4573,99.0363
2765.4216,99.0346
2766.3857,99.0307
2767.3501,99.0251
2768.3142,99.0194
2769.2786,99.0148
2770.2427,99.0109
2771.2070,99.0051
2772.1711,98.9944
2773.1355,98.9772
2774.0996,98.9546
2775.0640,98.9301
2776.0281,98.9072
2776.9924,98.8872
2777.9565,98.868
2778.9209,98.8452
2779.8850,98.8155
2780.8494,98.7789
2781.8135,98.7388
2782.7778,98.7008
2783.7419,98.6692
2784.7063,98.6457
2785.6704,98.6281
2786.6348,98.6121
2787.5989,98.5928
2788.5632,98.5667
2789.5273,98.5326
2790.4917,98.4917
2791.4558,98.4472
2792.4202,98.4027
2793.3843,98.3608
2794.3486,98.3221
2795.3127,98.285
2796.2771,98.2471
2797.2412,98.2063
2798.2056,98.1619
2799.1697,98.1143
2800.1340,98.0642
2801.0981,98.012
2802.0625,97.958
2803.0266,97.9025
2803.9910,97.8464
2804.9551,97.7903
2805.9194,97.7337
2806.8835,97.6747
2807.8479,97.6103
2808.8120,97.538
2809.7764,97.4573
2810.7405,97.3692
2811.7048,97.2762
2812.6689,97.1799
2813.6333,97.0809
2814.5974,96.9784
2815.5618,96.8709
2816.5259,96.7573
2817.4902,96.6363
2818.4543,96.5065
2819.4187,96.3658
2820.3828,96.2117
2821.3472,96.0425
2822.3113,95.8575
2823.2756,95.6575
2824.2397,95.4435
2825.2041,95.2165
2826.1682,94.9761
2827.1326,94.7211
2828.0967,94.4498
2829.0610,94.1613
2830.0251,93.8559
2830.9895,93.5356
2831.9536,93.203
2832.9180,92.8615
2833.8821,92.5145
2834.8464,92.1649
2835.8105,91.815
2836.7749,91.4666
2837.7390,91.1218
2838.7034,90.7825
2839.6675,90.4497
2840.6318,90.1215
2841.5959,89.7918
2842.5603,89.4512
2843.5244,89.0915
2844.4888,88.7128
2845.4529,88.3293
2846.4172,87.9694
2847.3813,87.6677
2848.3457,87.452
2849.3098,87.3306
2850.2742,87.2887
2851.2383,87.2942
2852.2026,87.3114
2853.1667,87.3138
2854.1311,87.2909
2855.0952,87.2453
2856.0596,87.1852
2857.0237,87.1162
2857.9880,87.0384
2858.9521,86.9479
2859.9165,86.8403
2860.8806,86.7142
2861.8450,86.5718
2862.8091,86.4177
2863.7734,86.2581
2864.7375,86.0986
2865.7019,85.944
2866.6660,85.7973
2867.6304,85.6595
2868.5945,85.5302
2869.5588,85.4084
2870.5229,85.2941
2871.4873,85.1876
2872.4514,85.0893
2873.4158,84.998
2874.3799,84.9108
2875.3442,84.8235
2876.3083,84.7321
2877.2727,84.6338
2878.2368,84.527
2879.2012,84.4123
2880.1653,84.293
2881.1296,84.1747
2882.0938,84.0654
2883.0581,83.9736
2884.0222,83.9049
2884.9866,83.8597
2885.9507,83.8318
2886.9150,83.8099
2887.8792,83.781
2888.8435,83.7355
2889.8076,83.6715
2890.7720,83.596
2891.7361,83.5204
2892.7004,83.4525
2893.6646,83.3878
2894.6289,83.3071
2895.5930,83.1836
2896.5574,82.9987
2897.5215,82.7563
2898.4858,82.4872
2899.4500,82.2377
2900.4143,82.0494
2901.3784,81.9394
2902.3428,81.8938
2903.3069,81.8766
2904.2712,81.8477
2905.2354,81.7782
2906.1997,81.6571
2907.1638,81.4863
2908.1282,81.2738
2909.0923,81.0275
2910.0566,80.7557
2911.0208,80.4686
2911.9851,80.1806
2912.9492,79.9085
2913.9136,79.6683
2914.8777,79.4715
2915.8420,79.3224
2916.8062,79.2177
2917.7705,79.1476
2918.7346,79.0989
2919.6990,79.0595
2920.6631,79.0212
2921.6274,78.9814
2922.5916,78.9416
2923.5559,78.9043
2924.5200,78.8712
2925.4844,78.8426
2926.4485,78.8192
2927.4128,78.8032
2928.3770,78.7989
2929.3413,78.8105
2930.3054,78.8406
2931.2698,78.8903
2932.2339,78.9603
2933.1982,79.0522
2934.1624,79.1694
2935.1267,79.3148
2936.0908,79.4891
2937.0552,79.6891
2938.0193,79.9082
2938.9836,80.1393
2939.9478,80.3771
2940.9121,80.6198
2941.8762,80.8679
2942.8406,81.1216
2943.8047,81.3777
2944.7690,81.6288
2945.7332,81.8642
2946.6975,82.0736
2947.6616,82.2507
2948.6260,82.3951
2949.5901,82.5116
2950.5544,82.607
2951.5186,82.6878
2952.4829,82.7582
2953.4470,82.8208
2954.4114,82.8785
2955.3755,82.9352
2956.3398,82.9965
2957.3040,83.067
2958.2683,83.1488
2959.2324,83.2402
2960.1968,83.3363
2961.1609,83.4313
2962.1252,83.5211
2963.0894,83.6045
2964.0537,83.6841
2965.0178,83.7641
2965.9822,83.8493
2966.9463,83.9442
2967.9106,84.0531
2968.8748,84.1813
2969.8391,84.3347
2970.8032,84.5182
2971.7676,84.7333
2972.7317,84.9771
2973.6960,85.242
2974.6602,85.5188
2975.6245,85.7994
2976.5886,86.0787
2977.5530,86.355
2978.5171,86.6287
2979.4814,86.8998
2980.4456,87.1653
2981.4099,87.4161
2982.3740,87.6382
2983.3384,87.8175
2984.3025,87.9497
2985.2668,88.0504
2986.2310,88.1573
2987.1953,88.3204
2988.1594,88.5808
2989.1238,88.9495
2990.0879,89.3983
2991.0522,89.8707
2992.0164,90.3061
2992.9807,90.6659
2993.9448,90.9457
2994.9092,91.1694
2995.8733,91.3716
2996.8376,91.5789
2997.8018,91.8021
2998.7661,92.0387
2999.7302,92.2819
3000.6946,92.5273
3001.6587,92.7753
3002.6230,93.0284
3003.5872,93.2888
3004.5515,93.5571
3005.5156,93.8315
3006.4800,94.1087
3007.4441,94.3839
3008.4084,94.6522
3009.3726,94.9102
3010.3369,95.1581
3011.3010,95.3998
3012.2654,95.6401
3013.2295,95.8816
3014.1938,96.1219
3015.1580,96.3542
3016.1223,96.5705
3017.0864,96.7661
3018.0508,96.9411
3019.0149,97.1005
3019.9792,97.2508
3020.9434,97.3975
3021.9077,97.5427
3022.8718,97.6851
3023.8362,97.8209
3024.8003,97.9462
3025.7646,98.0591
3026.7288,98.1604
3027.6931,98.2536
3028.6572,98.3438
3029.6216,98.4351
3030.5857,98.5292
3031.5500,98.6242
3032.5142,98.7157
3033.4785,98.7991
3034.4426,98.8724
3035.4070,98.9372
3036.3711,98.9975
3037.3354,99.0188
3038.2996,99.0347
3039.2639,99.0471
3040.2280,99.0495
3041.1924,99.0358
3042.1565,99.0037
3043.1208,98.9563
3044.0850,98.9011
3045.0493,98.8468
3046.0134,98.7998
3046.9778,98.761
3047.9419,98.7266
3048.9063,98.6895
3049.8704,98.6433
3050.8347,98.5854
3051.7988,98.518
3052.7632,98.4467
3053.7273,98.3787
3054.6917,98.3193
3055.6558,98.2705
3056.6201,98.2302
3057.5842,98.1934
3058.5486,98.1539
3059.5127,98.106
3060.4771,98.0468
3061.4412,97.9768
3062.4055,97.9006
3063.3696,97.8254
3064.3340,97.7584
3065.2981,97.7036
3066.2625,97.6597
3067.2266,97.6212
3068.1909,97.5813
3069.1550,97.5359
3070.1194,97.4849
3071.0835,97.4314
3072.0479,97.378
3073.0120,97.325
3073.9763,97.2699
3074.9404,97.2091
3075.9048,97.1415
3076.8689,97.0699
3077.8333,97.0001
3078.7974,96.9378
3079.7617,96.8857
3080.7258,96.8421
3081.6902,96.8018
3082.6543,96.759
3083.6187,96.7095
3084.5828,96.6525
3085.5471,96.5897
3086.5112,96.524
3087.4756,96.4574
3088.4397,96.3899
3089.4041,96.3195
3090.3682,96.2442
3091.3325,96.1634
3092.2966,96.0785
3093.2610,95.9922
3094.2251,95.9069
3095.1895,95.8229
3096.1536,95.7391
3097.1179,95.6542
3098.0820,95.5683
3099.0464,95.4833
3100.0105,95.401
3100.9749,95.3216
3101.9390,95.2431
3102.9033,95.1631
3103.8674,95.0805
3104.8318,94.9971
3105.7959,94.9162
3106.7603,94.8401
3107.7244,94.7683
3108.6887,94.697
3109.6528,94.6211
3110.6172,94.5373
3111.5813,94.4451
3112.5457,94.3471
3113.5098,94.2476
3114.4741,94.15
3115.4382,94.0566
3116.4026,93.9676
3117.3667,93.8824
3118.3311,93.8
3119.2952,93.7199
3120.2595,93.6417
3121.2236,93.5652
3122.1880,93.4901
3123.1521,93.4158
3124.1165,93.3422
3125.0806,93.2693
3126.0449,93.1971
3127.0090,93.1243
3127.9734,93.0485
3128.9375,92.9672
3129.9019,92.8789
3130.8660,92.7847
3131.8303,92.6887
3132.7944,92.5954
3133.7588,92.5083
3134.7229,92.4279
3135.6873,92.3522
3136.6514,92.2783
3137.6157,92.2037
3138.5798,92.1271
3139.5442,92.0474
3140.5083,91.9641
3141.4727,91.8763
3142.4368,91.7841
3143.4011,91.6888
3144.3652,91.5924
3145.3296,91.4977
3146.2937,91.4069
3147.2581,91.3211
3148.2222,91.2402
3149.1865,91.1625
3150.1506,91.0849
3151.1150,91.0036
3152.0791,90.916
3153.0435,90.8215
3154.0076,90.7219
3154.9719,90.6209
3155.9360,90.5217
3156.9004,90.4258
3157.8645,90.3332
3158.8289,90.2426
3159.7930,90.1529
3160.7573,90.0637
3161.7214,89.9748
3162.6858,89.8861
3163.6499,89.797
3164.6143,89.707
3165.5784,89.6161
3166.5427,89.5249
3167.5068,89.4348
3168.4712,89.3468
3169.4353,89.3096
3170.3997,89.2233
3171.3638,89.1337
3172.3281,89.0386
3173.2922,88.9374
3174.2566,88.8324
3175.2207,88.7281
3176.1851,88.6293
3177.1492,88.5393
3178.1135,88.4578
3179.0776,88.3813
3180.0420,88.3052
3181.0061,88.2264
3181.9705,88.1448
3182.9346,88.0627
3183.8989,87.9824
3184.8630,87.9047
3185.8274,87.8281
3186.7915,87.7497
3187.7559,87.6677
3188.7200,87.5821
3189.6843,87.4953
3190.6484,87.4097
3191.6128,87.3265
3192.5769,87.2446
3193.5413,87.1614
3194.5054,87.0751
3195.4697,86.986
3196.4338,86.8967
3197.3982,86.8107
3198.3623,86.7309
3199.3267,86.6577
3200.2908,86.5894
3201.2551,86.5228
3202.2192,86.4552
3203.1836,86.3845
3204.1477,86.3102
3205.1121,86.2333
3206.0762,86.1558
3207.0405,86.08
3208.0046,86.0068
3208.9690,85.9356
3209.9331,85.864
3210.8975,85.7898
3211.8616,85.7128
3212.8259,85.6356
3213.7900,85.5627
3214.7544,85.4977
3215.7185,85.4408
3216.6829,85.3883
3217.6470,85.3341
3218.6113,85.273
3219.5754,85.2031
3220.5398,85.1266
3221.5039,85.0483
3222.4683,84.973
3223.4324,84.904
3224.3967,84.8421
3225.3608,84.7863
3226.3252,84.7349
3227.2893,84.6861
3228.2537,84.6389
3229.2178,84.5923
3230.1821,84.5452
3231.1462,84.4963
3232.1106,84.4443
3233.0747,84.3884
3234.0391,84.3288
3235.0032,84.2669
3235.9675,84.204
3236.9316,84.141
3237.8960,84.0779
3238.8601,84.0142
3239.8245,83.9503
3240.7886,83.8878
3241.7529,83.8293
3242.7170,83.7767
3243.6814,83.7307
3244.6455,83.6895
3245.6099,83.6495
3246.5740,83.607
3247.5383,83.5597
3248.5024,83.5075
3249.4668,83.4516
3250.4309,83.3936
3251.3953,83.3352
3252.3594,83.2773
3253.3237,83.2205
3254.2878,83.1655
3255.2522,83.1131
3256.2163,83.0645
3257.1807,83.0203
3258.1448,82.9801
3259.1091,82.9424
3260.0732,82.9049
3261.0376,82.8659
3262.0017,82.825
3262.9661,82.7834
3263.9302,82.7427
3264.8945,82.7033
3265.8586,82.6632
3266.8230,82.619
3267.7871,82.5673
3268.7515,82.5076
3269.7156,82.4431
3270.6799,82.3799
3271.6440,82.3245
3272.6084,82.2802
3273.5725,82.2462
3274.5369,82.218
3275.5010,82.19
3276.4653,82.1589
3277.4294,82.1246
3278.3938,82.0897
3279.3579,82.0571
3280.3223,82.0281
3281.2864,82.0011
3282.2507,81.9721
3283.2148,81.937
3284.1792,81.893
3285.1433,81.8404
3286.1077,81.7826
3287.0718,81.7245
3288.0361,81.6708
3289.0002,81.6243
3289.9646,81.5856
3290.9287,81.5536
3291.8931,81.5263
3292.8572,81.502
3293.8215,81.4794
3294.7856,81.4563
3295.7500,81.43
3296.7141,81.3974
3297.6785,81.3567
3298.6426,81.3087
3299.6069,81.257
3300.5710,81.2062
3301.5354,81.1603
3302.4995,81.1207
3303.4639,81.087
3304.4280,81.0576
3305.3923,81.0315
3306.3564,81.008
3307.3208,80.9864
3308.2849,80.965
3309.2493,80.9418
3310.2134,80.9158
3311.1777,80.888
3312.1418,80.8615
3313.1062,80.8394
3314.0703,80.823
3315.0347,80.81
3315.9988,80.7956
3316.9631,80.7747
3317.9272,80.7445
3318.8916,80.7057
3319.8557,80.6625
3320.8201,80.6198
3321.7842,80.5817
3322.7485,80.5493
3323.7126,80.5215
3324.6770,80.4964
3325.6411,80.4725
3326.6055,80.4501
3327.5696,80.43
3328.5339,80.4123
3329.4980,80.3955
3330.4624,80.3774
3331.4265,80.3562
3332.3909,80.3324
3333.3550,80.3085
3334.3193,80.2871
3335.2834,80.2693
3336.2478,80.2533
3337.2119,80.236
3338.1763,80.2152
3339.1404,80.1909
3340.1047,80.1658
3341.0688,80.1426
3342.0332,80.1229
3342.9973,80.1062
3343.9617,80.091
3344.9258,80.0761
3345.8901,80.0615
3346.8542,80.0483
3347.8186,80.0377
3348.7827,80.0301
3349.7471,80.0251
3350.7112,80.021
3351.6755,80.0154
3352.6396,80.0056
3353.6040,79.9897
3354.5681,79.9672
3355.5325,79.9409
3356.4966,79.9153
3357.4609,79.8953
3358.4250,79.8828
3359.3894,79.8758
3360.3535,79.8693
3361.3179,79.8582
3362.2820,79.8409
3363.2463,79.8209
3364.2104,79.8043
3365.1748,79.7967
3366.1389,79.7997
3367.1033,79.8099
3368.0674,79.8218
3369.0317,79.8307
3369.9958,79.835
3370.9602,79.8355
3371.9243,79.8337
3372.8887,79.8307
3373.8528,79.8274
3374.8171,79.8251
3375.7813,79.8262
3376.7456,79.8326
3377.7097,79.8439
3378.6741,79.8566
3379.6382,79.8651
3380.6025,79.8652
3381.5667,79.8569
3382.5310,79.8448
3383.4951,79.8352
3384.4595,79.8328
3385.4236,79.8381
3386.3879,79.8484
3387.3521,79.8612
3388.3164,79.8758
3389.2805,79.8934
3390.2449,79.9148
3391.2090,79.9386
3392.1733,79.962
3393.1375,79.9834
3394.1018,80.0054
3395.0659,80.0333
3396.0303,80.0715
3396.9944,80.1184
3397.9587,80.166
3398.9229,80.2032
3399.8872,80.2228
3400.8513,80.2259
3401.8157,80.2216
3402.7798,80.2216
3403.7441,80.2342
3404.7083,80.2613
3405.6726,80.2993
3406.6367,80.3425
3407.6011,80.3861
3408.5652,80.4276
3409.5295,80.466
3410.4937,80.5004
3411.4580,80.5297
3412.4221,80.5525
3413.3865,80.5682
3414.3506,80.5777
3415.3149,80.5841
3416.2791,80.5926
3417.2434,80.6099
3418.2075,80.6424
3419.1719,80.6939
3420.1360,80.7625
3421.1003,80.8403
3422.0645,80.9166
3423.0288,80.9826
3423.9929,81.0357
3424.9573,81.0796
3425.9214,81.1216
3426.8857,81.1685
3427.8499,81.2241
3428.8142,81.2878
3429.7783,81.3555
3430.7427,81.4227
3431.7068,81.487
3432.6711,81.5486
3433.6353,81.6091
3434.5996,81.6697
3435.5637,81.7288
3436.5281,81.7832
3437.4922,81.83
3438.4565,81.8686
3439.4207,81.9016
3440.3850,81.9329
3441.3491,81.9662
3442.3135,82.0034
3443.2776,82.0457
3444.2419,82.0948
3445.2061,82.1539
3446.1704,82.2255
3447.1345,82.3093
3448.0989,82.4007
3449.0630,82.4935
3450.0273,82.5832
3450.9915,82.6687
3451.9558,82.7499
3452.9199,82.826
3453.8843,82.8946
3454.8484,82.953
3455.8127,83.0012
3456.7769,83.0422
3457.7412,83.0814
3458.7053,83.124
3459.6697,83.1734
3460.6338,83.2306
3461.5981,83.295
3462.5623,83.3652
3463.5266,83.4396
3464.4907,83.517
3465.4551,83.5964
3466.4192,83.6777
3467.3835,83.761
3468.3477,83.846
3469.3120,83.9309
3470.2761,84.0128
3471.2405,84.0896
3472.2046,84.1608
3473.1689,84.2283
3474.1331,84.2949
3475.0974,84.3613
3476.0615,84.4264
3477.0259,84.4883
3477.9900,84.5479
3478.9543,84.6103
3479.9185,84.6822
3480.8828,84.7676
3481.8469,84.8627
3482.8113,84.957
3483.7754,85.0402
3484.7397,85.1089
3485.7039,85.1694
3486.6682,85.2335
3487.6323,85.3116
3488.5967,85.4065
3489.5608,85.512
3490.5251,85.6174
3491.4893,85.7146
3492.4536,85.8016
3493.4177,85.8828
3494.3821,85.9645
3495.3462,86.0498
3496.3105,86.1352
3497.2747,86.2125
3498.2390,86.2748
3499.2031,86.3225
3500.1675,86.3656
3501.1316,86.4216
3502.0959,86.5069
3503.0601,86.6255
3504.0244,86.7635
3504.9885,86.8994
3505.9529,87.0182
3506.9170,87.1174
3507.8813,87.2042
3508.8455,87.2896
3509.8098,87.3826
3510.7739,87.486
3511.7383,87.5975
3512.7024,87.7141
3513.6667,87.8341
3514.6309,87.9559
3515.5952,88.076
3516.5593,88.1881
3517.5237,88.2872
3518.4878,88.372
3519.4521,88.4462
3520.4163,88.5161
3521.3806,88.5871
3522.3447,88.661
3523.3091,88.7364
3524.2732,88.8126
3525.2375,88.8939
3526.2017,88.9903
3527.1660,89.1119
3528.1301,89.2605
3529.0945,89.4251
3530.0586,89.5865
3531.0229,89.7299
3531.9871,89.8531
3532.9514,89.9657
3533.9155,90.083
3534.8799,90.2169
3535.8440,90.3692
3536.8083,90.5288
3537.7725,90.6768
3538.7368,90.7973
3539.7009,90.8851
3540.6653,90.9469
3541.6294,90.9967
3542.5938,91.0536
3543.5579,91.138
3544.5222,91.2649
3545.4863,91.4312
3546.4507,91.6133
3547.4148,91.7843
3548.3792,91.934
3549.3433,92.0717
3550.3076,92.2145
3551.2717,92.3746
3552.2361,92.5511
3553.2002,92.7297
3554.1646,92.8929
3555.1287,93.0321
3556.0930,93.1508
3557.0571,93.2583
3558.0215,93.3596
3558.9856,93.4532
3559.9500,93.5326
3560.9141,93.5931
3561.8784,93.6364
3562.8425,93.6708
3563.8069,93.7109
3564.7710,93.785
3565.7354,93.9393
3566.6995,94.1987
3567.6638,94.5086
3568.6279,94.7699
3569.5923,94.9365
3570.5564,95.0337
3571.5208,95.1073
3572.4849,95.1855
3573.4492,95.2722
3574.4133,95.3601
3575.3777,95.4435
3576.3418,95.5241
3577.3062,95.6065
3578.2703,95.6913
3579.2346,95.7718
3580.1987,95.8391
3581.1631,95.8911
3582.1272,95.9361
3583.0916,95.987
3584.0557,96.0513
3585.0200,96.1312
3585.9841,96.2323
3586.9485,96.3566
3587.9126,96.4751
3588.8770,96.5404
3589.8411,96.5388
3590.8054,96.5009
3591.7695,96.4656
3592.7339,96.4537
3593.6980,96.4653
3594.6624,96.4886
3595.6265,96.5087
3596.5908,96.5195
3597.5549,96.5327
3598.5193,96.5712
3599.4834,96.6524
3600.4478,96.7718
3601.4119,96.9038
3602.3762,97.0215
3603.3403,97.1164
3604.3047,97.1969
3605.2688,97.2771
3606.2332,97.3685
3607.1973,97.4747
3608.1616,97.5841
3609.1257,97.6695
3610.0901,97.706
3611.0542,97.6913
3612.0186,97.6463
3612.9829,97.6012
3613.9470,97.5792
3614.9114,97.5878
3615.8755,97.621
3616.8398,97.6681
3617.8040,97.7235
3618.7683,97.7854
3619.7324,97.8375
3620.6968,97.8489
3621.6609,97.8106
3622.6252,97.7573
3623.5894,97.7414
3624.5537,97.7914
3625.5178,97.8903
3626.4822,97.9897
3627.4463,98.0616
3628.4106,98.1269
3629.3748,98.1882
3630.3391,98.2011
3631.3032,98.1596
3632.2676,98.1137
3633.2317,98.1096
3634.1960,98.154
3635.1602,98.221
3636.1245,98.2772
3637.0886,98.3034
3638.0530,98.2997
3639.0171,98.2762
3639.9814,98.2418
3640.9456,98.2017
3641.9099,98.163
3642.8740,98.1375
3643.8384,98.1336
3644.8025,98.1376
3645.7668,98.1022
3646.7310,97.9801
3647.6953,97.8303
3648.6594,97.8416
3649.6238,98.0489
3650.5879,98.2392
3651.5522,98.2899
3652.5164,98.2541
3653.4807,98.2152
3654.4448,98.2059
3655.4092,98.2138
3656.3733,98.2112
3657.3376,98.1807
3658.3018,98.1273
3659.2661,98.0749
3660.2302,98.0474
3661.1946,98.0505
3662.1587,98.0723
3663.1230,98.0996
3664.0872,98.1325
3665.0515,98.1791
3666.0156,98.2359
3666.9800,98.2754
3667.9441,98.2665
3668.9084,98.216
3669.8726,98.1664
3670.8369,98.1436
3671.8010,98.1393
3672.7654,98.1335
3673.7295,98.1135
3674.6938,98.102
3675.6580,98.1508
3676.6223,98.2598
3677.5864,98.366
3678.5508,98.4331
3679.5149,98.4718
3680.4792,98.4963
3681.4434,98.5067
3682.4077,98.5036
3683.3718,98.5011
3684.3362,98.5171
3685.3003,98.5481
3686.2646,98.554
3687.2288,98.4856
3688.1931,98.3578
3689.1572,98.2726
3690.1216,98.3013
3691.0857,98.4043
3692.0500,98.5154
3693.0142,98.6104
3693.9785,98.6933
3694.9426,98.7722
3695.9070,98.8541
3696.8711,98.9444
3697.8354,99.0444
3698.7996,99.1478
3699.7639,99.2429
3700.7280,99.3207
3701.6924,99.3777
3702.6565,99.4121
3703.6208,99.4248
3704.5850,99.4249
3705.5493,99.4258
3706.5134,99.4308
3707.4778,99.4278
3708.4419,99.4094
3709.4063,99.4158
3710.3704,99.5356
3711.3347,99.7927
3712.2988,100.068
3713.2632,100.228
3714.2273,100.249
3715.1917,100.187
3716.1558,100.097
3717.1201,100.006
3718.0842,99.9119
3719.0486,99.8071
3720.0127,99.6936
3720.9771,99.5853
3721.9412,99.5008
3722.9055,99.4552
3723.8696,99.4541
3724.8340,99.4902
3725.7981,99.5442
3726.7625,99.5964
3727.7266,99.6404
3728.6909,99.6819
3729.6550,99.7331
3730.6194,99.7588
3731.5835,99.7291
3732.5479,99.6369
3733.5120,99.542
3734.4763,99.5505
3735.4404,99.6852
3736.4048,99.8336
3737.3689,99.8996
3738.3333,99.9111
3739.2974,99.9634
3740.2617,100.126
3741.2258,100.39
3742.1902,100.665
3743.1543,100.822
3744.1187,100.785
3745.0828,100.584
3746.0471,100.315
3747.0112,100.073
3747.9756,99.9117
3748.9397,99.8465
3749.9041,99.893
3750.8682,100.041
3751.8325,100.186
3752.7966,100.212
3753.7610,100.124
3754.7251,100.005
3755.6895,99.9177
3756.6536,99.8857
3757.6179,99.907
3758.5820,99.9696
3759.5464,100.047
3760.5105,100.107
3761.4749,100.133
3762.4390,100.134
3763.4033,100.122
3764.3674,100.11
3765.3318,100.103
3766.2959,100.104
3767.2603,100.116
3768.2244,100.14
3769.1887,100.175
3770.1528,100.214
3771.1172,100.242
3772.0813,100.25
3773.0457,100.241
3774.0098,100.23
3774.9741,100.225
3775.9382,100.224
3776.9026,100.215
3777.8667,100.196
3778.8311,100.17
3779.7952,100.138
3780.7595,100.092
3781.7236,100.033
3782.6880,99.9722
3783.6521,99.9309
3784.6165,99.926
3785.5806,99.9628
3786.5449,100.031
3787.5090,100.11
3788.4734,100.182
3789.4375,100.242
3790.4019,100.288
3791.3660,100.317
3792.3303,100.319
3793.2944,100.276
3794.2588,100.182
3795.2229,100.058
3796.1873,99.9413
3797.1514,99.8675
3798.1157,99.8422
3799.0798,99.8426
3800.0442,99.8425
3801.0083,99.836
3801.9727,99.833
3802.9368,99.8456
3803.9011,99.8881
3804.8652,99.9706
3805.8296,100.082
3806.7937,100.184
3807.7581,100.23
3808.7222,100.202
3809.6865,100.134
3810.6506,100.088
3811.6150,100.102
3812.5791,100.16
3813.5435,100.204
3814.5076,100.178
3815.4719,100.079
3816.4360,99.9493
3817.4004,99.8369
3818.3645,99.7696
3819.3289,99.7567
3820.2930,99.7899
3821.2573,99.8342
3822.2214,99.8386
3823.1858,99.7841
3824.1499,99.7031
3825.1143,99.6464
3826.0784,99.6451
3827.0427,99.6977
3828.0068,99.7785
3828.9712,99.8557
3829.9353,99.9084
3830.8997,99.9348
3831.8638,99.9473
3832.8281,99.9588
3833.7922,99.9679
3834.7566,99.9539
3835.7207,99.8885
3836.6851,99.7649
3837.6492,99.6214
3838.6135,99.5215
3839.5776,99.5039
3840.5420,99.5637
3841.5061,99.6733
3842.4705,99.7984
3843.4346,99.9005
3844.3989,99.9454
3845.3630,99.9236
3846.3274,99.8641
3847.2915,99.8256
3848.2559,99.8665
3849.2200,100.011
3850.1843,100.222
3851.1484,100.414
3852.1128,100.53
3853.0769,100.59
3854.0413,100.579
3855.0054,100.423
3855.9697,100.166
3856.9338,99.9297
3857.8982,99.8003
3858.8623,99.7845
3859.8267,99.8301
3860.7908,99.8647
3861.7551,99.8443
3862.7192,99.7852
3863.6836,99.743
3864.6477,99.7548
3865.6121,99.8138
3866.5762,99.8875
3867.5405,99.9399
3868.5046,99.9487
3869.4690,99.9187
3870.4331,99.8803
3871.3975,99.8619
3872.3616,99.8662
3873.3259,99.8789
3874.2900,99.8908
3875.2544,99.9046
3876.2185,99.9242
3877.1829,99.9442
3878.1470,99.951
3879.1113,99.9359
3880.0754,99.9091
3881.0398,99.8949
3882.0039,99.9151
3882.9683,99.9736
3883.9324,100.055
3884.8967,100.128
3885.8608,100.162
3886.8252,100.146
3887.7893,100.092
3888.7537,100.024
3889.7178,99.9601
3890.6821,99.9147
3891.6462,99.8939
3892.6106,99.8891
3893.5747,99.8846
3894.5391,99.8796
3895.5032,99.8845
3896.4675,99.8985
3897.4316,99.9039
3898.3960,99.8838
3899.3601,99.8397
3900.3245,99.7894
3901.2886,99.7506
3902.2529,99.7349
3903.2170,99.7478
3904.1814,99.7831
3905.1455,99.8224
3906.1099,99.8514
3907.0740,99.8709
3908.0383,99.8884
3909.0024,99.9075
3909.9668,99.9249
3910.9309,99.9366
3911.8953,99.943
3912.8594,99.9476
3913.8237,99.9529
3914.7878,99.9575
3915.7522,99.9588
3916.7163,99.9563
3917.6807,99.9486
3918.6448,99.9297
3919.6091,99.894
3920.5732,99.844
3921.5376,99.7899
3922.5017,99.7432
3923.4661,99.712
3924.4302,99.697
3925.3945,99.6893
3926.3586,99.6772
3927.3230,99.6554
3928.2871,99.628
3929.2515,99.605
3930.2156,99.601
3931.1799,99.6286
3932.1440,99.6873
3933.1084,99.7591
3934.0725,99.8215
3935.0369,99.863
3936.0010,99.8843
3936.9653,99.8907
3937.9294,99.8848
3938.8938,99.8666
3939.8579,99.8369
3940.8223,99.8017
3941.7864,99.7714
3942.7507,99.754
3943.7148,99.7482
3944.6792,99.7458
3945.6433,99.7376
3946.6077,99.719
3947.5718,99.6924
3948.5361,99.6673
3949.5002,99.6538
3950.4646,99.6562
3951.4287,99.6708
3952.3931,99.6909
3953.3572,99.7106
3954.3215,99.7261
3955.2856,99.7353
3956.2500,99.7374
3957.2141,99.733
3958.1785,99.7241
3959.1426,99.7148
3960.1069,99.7106
3961.0710,99.7168
3962.0354,99.7351
3962.9995,99.7614
3963.9639,99.7872
3964.9280,99.8033
3965.8923,99.8036
3966.8564,99.7871
3967.8208,99.7574
3968.7849,99.7212
3969.7493,99.686
3970.7134,99.6585
3971.6777,99.6432
3972.6418,99.6423
3973.6062,99.6547
3974.5703,99.6763
3975.5347,99.7002
3976.4988,99.7198
3977.4631,99.7305
3978.4272,99.7316
3979.3916,99.7254
3980.3557,99.7151
3981.3201,99.7036
3982.2842,99.6925
3983.2485,99.6828
3984.2126,99.6758
3985.1770,99.6733
3986.1411,99.6763
3987.1055,99.6828
3988.0696,99.6875
3989.0339,99.6829
3989.9980,99.6638
3990.9624,99.6311
3991.9265,99.5932
3992.8909,99.5629
3993.8550,99.5509
3994.8193,99.5601
3995.7834,99.584
3996.7478,99.6105
3997.7119,99.6282
3998.6763,99.6322
3999.6404,99.6256
4000.6047,99.4576

##### Extended Information
[Comments]
Sample name
Comment
User
Division
Company,HANKYONG

[Detailed Information]
Creation date,4/24/2024 11:14 AM

Data array type,Linear data array
Horizontal axis,Wavenumber [cm-1]
Vertical axis,%T
Start,649.893 cm-1
End,4000.6 cm-1
Data interval,0.964233 cm-1
Data points,3476    

[Measurement Information]
Model Name,FT/IR-4700typeA
Serial Number,D056761788

Accessory,ATR PRO ONE
Accessory S/N,C174761809
Incident angle,45 deg

Measurement Date,4/24/2024 11:14 AM

Light Source,Standard
Detector,TGS
Accumulation,32
Resolution,4 cm-1
Zero Filling,On
Apodization,Cosine
Gain,Auto (4)
Aperture,Auto (7.1 mm)
Scanning Speed,Auto (2 mm/sec)
Filter,Auto (30000 Hz)

