TITLE,
DATA TYPE,INFRARED SPECTRUM
ORIGIN,JASCO
OWNER,
DATE,24/04/24
TIME,11:46:29
SPECTROMETER/DATA SYSTEM,
LOCALE,1033
RESOLUTION,
DELTAX,0.964233
XUNITS,1/CM
YUNITS,TRANSMITTANCE
FIRSTX,  649.8934
LASTX, 4000.6047
NPOINTS,    3476
FIRSTY,    99.67676
MAXY,   101.63914
MINY,    58.90791
XYDATA
649.8934,99.6768
650.8576,99.5732
651.8218,99.5121
652.7861,99.4783
653.7503,99.4593
654.7145,99.4592
655.6788,99.481
656.6430,99.5138
657.6072,99.5372
658.5715,99.5408
659.5357,99.5385
660.4999,99.5568
661.4642,99.5995
662.4284,99.6223
663.3926,99.5378
664.3569,99.2379
665.3211,98.6144
666.2853,97.6103
667.2496,96.377
668.2138,95.4438
669.1780,95.3489
670.1423,95.9489
671.1065,96.6967
672.0707,97.2547
673.0350,97.5516
673.9992,97.6399
674.9634,97.6143
675.9277,97.5733
676.8919,97.5847
677.8561,97.6657
678.8204,97.7957
679.7846,97.9448
680.7488,98.0929
681.7131,98.233
682.6773,98.368
683.6415,98.5089
684.6058,98.6726
685.5700,98.8743
686.5342,99.1127
687.4985,99.3597
688.4627,99.5642
689.4269,99.6721
690.3912,99.6529
691.3554,99.5307
692.3196,99.4038
693.2839,99.4145
694.2481,99.6407
695.2123,100.02
696.1766,100.419
697.1408,100.73
698.1050,100.907
699.0693,100.957
700.0335,100.917
700.9977,100.835
701.9620,100.751
702.9262,100.684
703.8904,100.644
704.8547,100.632
705.8189,100.651
706.7831,100.695
707.7474,100.75
708.7116,100.793
709.6758,100.801
710.6401,100.755
711.6043,100.649
712.5685,100.483
713.5328,100.261
714.4970,99.9832
715.4612,99.9049
716.4255,99.5298
717.3897,99.1741
718.3539,98.9051
719.3182,98.7893
720.2824,98.8591
721.2466,99.0906
722.2109,99.4126
723.1751,99.742
724.1393,100.018
725.1036,100.213
726.0678,100.328
727.0320,100.375
727.9963,100.371
728.9605,100.331
729.9247,100.27
730.8890,100.203
731.8532,100.134
732.8174,100.052
733.7817,99.9344
734.7459,99.7513
735.7101,99.4805
736.6744,99.1166
737.6386,98.6718
738.6028,98.1685
739.5671,97.6314
740.5313,97.0827
741.4955,96.5432
742.4598,96.0361
743.4240,95.5867
744.3882,95.218
745.3525,94.9453
746.3167,94.772
747.2809,94.6912
748.2452,94.6899
749.2094,94.7528
750.1736,94.863
751.1379,95.0017
752.1021,95.1491
753.0663,95.2878
754.0306,95.4076
754.9948,95.5077
755.9590,95.593
756.9233,95.667
757.8875,95.7262
758.8517,95.7599
759.8160,95.7572
760.7802,95.7157
761.7444,95.6479
762.7087,95.5785
763.6729,95.5373
764.6371,95.5498
765.6014,95.6319
766.5656,95.7895
767.5298,96.0206
768.4941,96.3168
769.4583,96.6624
770.4225,97.0337
771.3868,97.4004
772.3510,97.7323
773.3152,98.0058
774.2795,98.2104
775.2437,98.3479
776.2079,98.4282
777.1722,98.4615
778.1364,98.4535
779.1006,98.4047
780.0649,98.3132
781.0291,98.1793
781.9933,98.009
782.9576,97.8147
783.9218,97.6136
784.8860,97.4228
785.8503,97.2558
786.8145,97.1187
787.7787,97.0092
788.7430,96.9193
789.7072,96.8387
790.6714,96.7591
791.6357,96.6771
792.5999,96.5933
793.5641,96.51
794.5284,96.4281
795.4926,96.3449
796.4568,96.2547
797.4211,96.1504
798.3853,96.0263
799.3495,95.8791
800.3138,95.7086
801.2780,95.5163
802.2422,95.3046
803.2065,95.0761
804.1707,94.8335
805.1349,94.5803
806.0992,94.3203
807.0634,94.0583
808.0276,93.7987
808.9919,93.545
809.9561,93.2994
810.9203,93.0635
811.8846,92.8401
812.8488,92.6345
813.8130,92.4545
814.7773,92.3079
815.7415,92.1989
816.7057,92.1254
817.6700,92.0793
818.6342,92.0501
819.5984,92.0295
820.5627,92.0148
821.5269,92.0084
822.4911,92.0149
823.4554,92.0379
824.4196,92.0779
825.3839,92.1335
826.3481,92.2027
827.3123,92.2834
828.2766,92.371
829.2408,92.4563
830.2050,92.5248
831.1693,92.5588
832.1335,92.5432
833.0977,92.4705
834.0620,92.3439
835.0262,92.1746
835.9904,91.9767
836.9547,91.7608
837.9189,91.5313
838.8831,91.2872
839.8474,91.0267
840.8116,90.7513
841.7758,90.4669
842.7401,90.1829
843.7043,89.9078
844.6685,89.6467
845.6328,89.4006
846.5970,89.1677
847.5612,88.9465
848.5255,88.7378
849.4897,88.5449
850.4539,88.3729
851.4182,88.2273
852.3824,88.1127
853.3466,88.0311
854.3109,87.9819
855.2751,87.961
856.2393,87.9618
857.2036,87.9762
858.1678,87.9971
859.1320,88.0203
860.0963,88.0467
861.0605,88.0826
862.0247,88.1389
862.9890,88.2278
863.9532,88.3581
864.9174,88.5321
865.8817,88.7432
866.8459,88.9781
867.8101,89.2209
868.7744,89.458
869.7386,89.6816
870.7028,89.8896
871.6671,90.0831
872.6313,90.2626
873.5955,90.4254
874.5598,90.5656
875.5240,90.6759
876.4882,90.7512
877.4525,90.7906
878.4167,90.7983
879.3809,90.7828
880.3452,90.7539
881.3094,90.7215
882.2736,90.6937
883.2379,90.6763
884.2021,90.6731
885.1663,90.6859
886.1306,90.7148
887.0948,90.7589
888.0590,90.8171
889.0233,90.8884
889.9875,90.9729
890.9517,91.0709
891.9160,91.1832
892.8802,91.3099
893.8444,91.4498
894.8087,91.599
895.7729,91.7511
896.7371,91.8968
897.7014,92.0268
898.6656,92.1334
899.6298,92.2137
900.5941,92.2699
901.5583,92.3077
902.5225,92.333
903.4868,92.3492
904.4510,92.3554
905.4152,92.3468
906.3795,92.317
907.3437,92.2603
908.3079,92.1745
909.2722,92.0626
910.2364,91.9335
911.2006,91.8005
912.1649,91.6779
913.1291,91.5772
914.0933,91.5045
915.0576,91.4598
916.0218,91.4403
916.9860,91.444
917.9503,91.4727
918.9145,91.5322
919.8787,91.6291
920.8430,91.7673
921.8072,91.945
922.7714,92.1539
923.7357,92.3826
924.6999,92.6199
925.6641,92.8584
926.6284,93.0973
927.5926,93.3421
928.5568,93.6035
929.5211,93.8938
930.4853,94.2242
931.4495,94.6019
932.4138,95.0284
933.3780,95.4993
934.3422,96.005
935.3065,96.5316
936.2707,97.0625
937.2349,97.5794
938.1992,98.0642
939.1634,98.5017
940.1276,98.8822
941.0919,99.2033
942.0561,99.4689
943.0203,99.6857
943.9846,99.8595
944.9488,99.9925
945.9130,100.084
946.8773,100.133
947.8415,100.141
948.8057,100.114
949.7700,100.06
950.7342,99.9858
951.6984,99.8914
952.6627,99.7996
953.6269,99.7603
954.5911,99.6832
955.5554,99.5646
956.5196,99.4044
957.4838,99.2045
958.4481,98.9676
959.4123,98.6965
960.3765,98.3949
961.3408,98.0683
962.3050,97.7246
963.2692,97.3733
964.2335,97.0245
965.1977,96.687
966.1619,96.3671
967.1262,96.0681
968.0904,95.7903
969.0546,95.5326
970.0189,95.2934
970.9831,95.072
971.9473,94.8675
972.9116,94.6784
973.8758,94.501
974.8400,94.3289
975.8043,94.154
976.7685,93.9674
977.7327,93.7607
978.6970,93.5264
979.6612,93.2586
980.6254,92.9526
981.5897,92.6052
982.5539,92.2157
983.5181,91.7862
984.4824,91.3232
985.4466,90.8385
986.4108,90.3487
987.3751,89.8739
988.3393,89.435
989.3035,89.0493
990.2678,88.7275
991.2320,88.4714
992.1962,88.2744
993.1605,88.1244
994.1247,88.0075
995.0889,87.9115
996.0532,87.8279
997.0174,87.7509
997.9816,87.6751
998.9459,87.5933
999.9101,87.4944
1000.8743,87.3643
1001.8386,87.1882
1002.8028,86.9535
1003.7670,86.6514
1004.7313,86.2767
1005.6955,85.8263
1006.6597,85.2977
1007.6240,84.6886
1008.5882,83.998
1009.5524,83.2274
1010.5167,82.3819
1011.4809,81.4685
1012.4451,80.4944
1013.4094,79.4639
1014.3736,78.3786
1015.3378,77.2383
1016.3021,76.0451
1017.2663,74.8074
1018.2305,73.5402
1019.1948,72.2615
1020.1590,70.9857
1021.1232,69.7182
1022.0875,68.4566
1023.0517,67.1982
1024.0160,65.9517
1024.9802,64.7426
1025.9445,63.6101
1026.9087,62.5939
1027.8729,61.719
1028.8372,60.9878
1029.8014,60.3846
1030.7656,59.8883
1031.7299,59.4859
1032.6941,59.1793
1033.6583,58.9816
1034.6226,58.9079
1035.5868,58.9658
1036.5510,59.1499
1037.5153,59.4417
1038.4795,59.8141
1039.4437,60.2366
1040.4080,60.6816
1041.3722,61.1293
1042.3364,61.5707
1043.3007,62.0066
1044.2649,62.4429
1045.2291,62.8864
1046.1934,63.3417
1047.1576,63.8129
1048.1218,64.307
1049.0861,64.8358
1050.0503,65.4128
1051.0145,66.0465
1051.9788,66.7345
1052.9430,67.4637
1053.9072,68.2171
1054.8715,68.9843
1055.8357,69.767
1056.7999,70.5744
1057.7642,71.4098
1058.7284,72.2545
1059.6926,73.0626
1060.6569,73.7721
1061.6211,74.3306
1062.5853,74.7219
1063.5496,74.9782
1064.5138,75.1675
1065.4780,75.3625
1066.4423,75.6058
1067.4065,75.891
1068.3707,76.1696
1069.3350,76.3778
1070.2992,76.4668
1071.2634,76.4207
1072.2277,76.2539
1073.1919,75.9968
1074.1561,75.6786
1075.1204,75.3188
1076.0846,74.9291
1077.0488,74.5181
1078.0131,74.0956
1078.9773,73.6723
1079.9415,73.2574
1080.9058,72.8574
1081.8700,72.4766
1082.8342,72.1192
1083.7985,71.7897
1084.7627,71.4932
1085.7269,71.2345
1086.6912,71.0168
1087.6554,70.841
1088.6196,70.7041
1089.5839,70.5975
1090.5481,70.507
1091.5123,70.4159
1092.4766,70.3107
1093.4408,70.1871
1094.4050,70.0521
1095.3693,69.9213
1096.3335,69.8122
1097.2977,69.7378
1098.2620,69.7031
1099.2262,69.7059
1100.1904,69.7412
1101.1547,69.8053
1102.1189,69.8987
1103.0831,70.0259
1104.0474,70.1943
1105.0116,70.4118
1105.9758,70.6851
1106.9401,71.0199
1107.9043,71.4203
1108.8685,71.8906
1109.8328,72.4347
1110.7970,73.0564
1111.7612,73.7575
1112.7255,74.5368
1113.6897,75.389
1114.6539,76.3058
1115.6182,77.278
1116.5824,78.2983
1117.5466,79.3644
1118.5109,80.479
1119.4751,81.6478
1120.4393,82.8754
1121.4036,84.1611
1122.3678,85.495
1123.3320,86.8587
1124.2963,88.2279
1125.2605,89.5772
1126.2247,90.8839
1127.1890,92.1295
1128.1532,93.299
1129.1174,94.3782
1130.0817,95.3531
1131.0459,96.2102
1132.0101,96.9386
1132.9744,97.5317
1133.9386,97.9876
1134.9028,98.3078
1135.8671,98.4952
1136.8313,98.5527
1137.7955,98.4837
1138.7598,98.2929
1139.7240,97.9881
1140.6882,97.58
1141.6525,97.0825
1142.6167,96.5118
1143.5809,95.8864
1144.5452,95.2277
1145.5094,94.5595
1146.4736,93.9075
1147.4379,93.2974
1148.4021,92.7357
1149.3663,92.18
1150.3306,91.7135
1151.2948,91.335
1152.2590,91.036
1153.2233,90.8021
1154.1875,90.6152
1155.1517,90.4557
1156.1160,90.303
1157.0802,90.1373
1158.0444,89.9405
1159.0087,89.6972
1159.9729,89.3961
1160.9371,89.031
1161.9014,88.6014
1162.8656,88.1133
1163.8298,87.5773
1164.7941,87.0077
1165.7583,86.419
1166.7225,85.824
1167.6868,85.2323
1168.6510,84.6506
1169.6152,84.0833
1170.5795,83.533
1171.5437,83.0004
1172.5079,82.4834
1173.4722,81.9769
1174.4364,81.4741
1175.4006,80.9691
1176.3649,80.4591
1177.3291,79.9455
1178.2933,79.4319
1179.2576,78.9217
1180.2218,78.416
1181.1860,77.9136
1182.1503,77.4127
1183.1145,76.9127
1184.0787,76.4153
1185.0430,75.9234
1186.0072,75.4396
1186.9714,74.9649
1187.9357,74.4982
1188.8999,74.0376
1189.8641,73.582
1190.8284,73.1318
1191.7926,72.6892
1192.7568,72.2576
1193.7211,71.8404
1194.6853,71.4403
1195.6495,71.058
1196.6138,70.6931
1197.5780,70.3442
1198.5422,70.0107
1199.5065,69.7286
1200.4707,69.426
1201.4349,69.1454
1202.3992,68.8903
1203.3634,68.6634
1204.3276,68.4669
1205.2919,68.3032
1206.2561,68.1746
1207.2203,68.0829
1208.1846,68.0286
1209.1488,68.0108
1210.1130,68.0276
1211.0773,68.0765
1212.0415,68.1558
1213.0057,68.2643
1213.9700,68.4016
1214.9342,68.568
1215.8984,68.7634
1216.8627,68.9872
1217.8269,69.2367
1218.7911,69.5067
1219.7554,69.7896
1220.7196,70.0772
1221.6838,70.3624
1222.6481,70.6403
1223.6123,70.9072
1224.5765,71.1605
1225.5408,71.3967
1226.5050,71.6114
1227.4692,71.7994
1228.4335,71.9551
1229.3977,72.0746
1230.3619,72.1575
1231.3262,72.2093
1232.2904,72.2421
1233.2546,72.2728
1234.2189,72.3172
1235.1831,72.3836
1236.1473,72.4709
1237.1116,72.5712
1238.0758,72.6781
1239.0400,72.7937
1240.0043,72.9295
1240.9685,73.0992
1241.9327,73.3075
1242.8970,73.5429
1243.8612,73.7797
1244.8254,73.9883
1245.7897,74.1481
1246.7539,74.2539
1247.7181,74.3132
1248.6824,74.3379
1249.6466,74.3354
1250.6108,74.3058
1251.5751,74.2433
1252.5393,74.1421
1253.5035,73.9999
1254.4678,73.8202
1255.4320,73.611
1256.3962,73.3847
1257.3605,73.1562
1258.3247,72.9424
1259.2889,72.7597
1260.2532,72.6211
1261.2174,72.5334
1262.1816,72.4967
1263.1459,72.5057
1264.1101,72.5514
1265.0743,72.6231
1266.0386,72.7099
1267.0028,72.8023
1267.9670,72.895
1268.9313,72.9873
1269.8955,73.083
1270.8597,73.1882
1271.8240,73.308
1272.7882,73.4451
1273.7524,73.6003
1274.7167,73.7741
1275.6809,73.9674
1276.6451,74.1819
1277.6094,74.4184
1278.5736,74.6749
1279.5378,74.9467
1280.5021,75.2258
1281.4663,75.504
1282.4305,75.7741
1283.3948,76.0324
1284.3590,76.2798
1285.3232,76.5212
1286.2875,76.7642
1287.2517,77.0163
1288.2159,77.282
1289.1802,77.5605
1290.1444,77.8464
1291.1086,78.1332
1292.0729,78.4163
1293.0371,78.6957
1294.0013,78.9747
1294.9656,79.2582
1295.9298,79.5484
1296.8940,79.8439
1297.8583,80.1391
1298.8225,80.4261
1299.7867,80.6968
1300.7510,80.945
1301.7152,81.1663
1302.6794,81.3599
1303.6437,81.5288
1304.6079,81.6779
1305.5721,81.8115
1306.5364,81.9315
1307.5006,82.036
1308.4648,82.1218
1309.4291,82.1879
1310.3933,82.2374
1311.3575,82.2777
1312.3218,82.3167
1313.2860,82.3587
1314.2502,82.4033
1315.2145,82.4478
1316.1787,82.4917
1317.1429,82.5388
1318.1072,82.5952
1319.0714,82.6631
1320.0356,82.7374
1320.9999,82.8063
1321.9641,82.859
1322.9283,82.8912
1323.8926,82.9066
1324.8568,82.9147
1325.8210,82.9254
1326.7853,82.9458
1327.7495,82.9788
1328.7137,83.0248
1329.6780,83.0841
1330.6422,83.1564
1331.6064,83.2382
1332.5707,83.3201
1333.5349,83.3878
1334.4991,83.4277
1335.4634,83.4343
1336.4276,83.4182
1337.3918,83.4103
1338.3561,83.4523
1339.3203,83.5704
1340.2845,83.7482
1341.2488,83.9347
1342.2130,84.08
1343.1772,84.1601
1344.1415,84.175
1345.1057,84.1371
1346.0699,84.0634
1347.0342,83.9707
1347.9984,83.8728
1348.9626,83.7771
1349.9269,83.6841
1350.8911,83.5902
1351.8553,83.4932
1352.8196,83.3963
1353.7838,83.3082
1354.7480,83.2376
1355.7123,83.1856
1356.6765,83.1431
1357.6407,83.0969
1358.6050,83.0401
1359.5692,82.9815
1360.5334,82.9492
1361.4977,82.9825
1362.4619,83.1016
1363.4261,83.2819
1364.3904,83.4716
1365.3546,83.6347
1366.3188,83.7666
1367.2831,83.8789
1368.2473,83.9792
1369.2115,84.0637
1370.1758,84.1219
1371.1400,84.1497
1372.1042,84.1583
1373.0685,84.1762
1374.0327,84.2357
1374.9969,84.3492
1375.9612,84.4997
1376.9254,84.6618
1377.8896,84.827
1378.8539,85.0044
1379.8181,85.2033
1380.7823,85.4192
1381.7466,85.6336
1382.7108,85.8303
1383.6750,86.0099
1384.6393,86.1935
1385.6035,86.4108
1386.5677,86.6739
1387.5320,86.9463
1388.4962,87.1518
1389.4604,87.2325
1390.4247,87.1861
1391.3889,87.0505
1392.3531,86.8756
1393.3174,86.7132
1394.2816,86.6125
1395.2458,86.6018
1396.2101,86.665
1397.1743,86.746
1398.1385,86.7845
1399.1028,86.7472
1400.0670,86.6322
1401.0313,86.4569
1401.9955,86.2459
1402.9597,86.023
1403.9240,85.8105
1404.8882,85.6256
1405.8524,85.4737
1406.8167,85.3454
1407.7809,85.2266
1408.7451,85.1102
1409.7094,84.9965
1410.6736,84.8841
1411.6378,84.7653
1412.6021,84.6287
1413.5663,84.4687
1414.5305,84.2879
1415.4948,84.09
1416.4590,83.8757
1417.4232,83.6532
1418.3875,83.4418
1419.3517,83.2416
1420.3159,83.0184
1421.2802,82.7466
1422.2444,82.438
1423.2086,82.1243
1424.1729,81.8315
1425.1371,81.5696
1426.1013,81.3345
1427.0656,81.1154
1428.0298,80.9046
1428.9940,80.7039
1429.9583,80.5245
1430.9225,80.377
1431.8867,80.2645
1432.8510,80.1804
1433.8152,80.1077
1434.7794,80.0201
1435.7437,79.8954
1436.7079,79.7265
1437.6721,79.5094
1438.6364,79.2392
1439.6006,78.9288
1440.5648,78.6065
1441.5291,78.2953
1442.4933,78.002
1443.4575,77.7204
1444.4218,77.4401
1445.3860,77.1531
1446.3502,76.8572
1447.3145,76.5566
1448.2787,76.2557
1449.2429,75.9554
1450.2072,75.6569
1451.1714,75.3724
1452.1356,75.1219
1453.0999,74.9154
1454.0641,74.735
1455.0283,74.5466
1455.9926,74.3735
1456.9568,74.3456
1457.9210,74.4838
1458.8853,74.5849
1459.8495,74.5453
1460.8137,74.4457
1461.7780,74.4092
1462.7422,74.5422
1463.7064,74.9316
1464.6707,75.5993
1465.6349,76.4325
1466.5991,77.2456
1467.5634,77.9422
1468.5276,78.5544
1469.4918,79.1663
1470.4561,79.8567
1471.4203,80.6893
1472.3845,81.686
1473.3488,82.7371
1474.3130,83.6068
1475.2772,84.1405
1476.2415,84.3599
1477.2057,84.3649
1478.1699,84.2517
1479.1342,84.1025
1480.0984,83.9945
1481.0626,83.9911
1482.0269,84.1191
1482.9911,84.3557
1483.9553,84.6443
1484.9196,84.9225
1485.8838,85.141
1486.8480,85.2757
1487.8123,85.3499
1488.7765,85.4367
1489.7407,85.5738
1490.7050,85.6917
1491.6692,85.7084
1492.6334,85.6157
1493.5977,85.44
1494.5619,85.1872
1495.5261,84.8356
1496.4904,84.3739
1497.4546,83.8387
1498.4188,83.2861
1499.3831,82.7448
1500.3473,82.2381
1501.3115,81.8085
1502.2758,81.4928
1503.2400,81.2811
1504.2042,81.0844
1505.1685,80.7452
1506.1327,80.1982
1507.0969,79.7126
1508.0612,79.5459
1509.0254,79.4963
1509.9896,79.3619
1510.9539,79.151
1511.9181,78.9344
1512.8823,78.7804
1513.8466,78.7649
1514.8108,78.9732
1515.7750,79.4617
1516.7393,80.2151
1517.7035,81.1718
1518.6677,82.3096
1519.6320,83.681
1520.5962,85.3167
1521.5604,87.0816
1522.5247,88.7122
1523.4889,90.0487
1524.4531,91.1509
1525.4174,92.1732
1526.3816,93.1893
1527.3458,94.1435
1528.3101,94.9427
1529.2743,95.5574
1530.2385,96.0392
1531.2028,96.48
1532.1670,96.9594
1533.1312,97.4887
1534.0955,97.9926
1535.0597,98.3926
1536.0239,98.6872
1536.9882,98.9095
1537.9524,99.032
1538.9166,98.958
1539.8809,98.7087
1540.8451,98.6184
1541.8093,98.9036
1542.7736,99.3222
1543.7378,99.6553
1544.7020,99.8728
1545.6663,99.9907
1546.6305,100.019
1547.5947,99.9758
1548.5590,99.888
1549.5232,99.78
1550.4874,99.6573
1551.4517,99.5111
1552.4159,99.3419
1553.3801,99.1775
1554.3444,99.0605
1555.3086,99.0056
1556.2728,98.9913
1557.2371,98.9333
1558.2013,98.9108
1559.1655,98.9877
1560.1298,98.8781
1561.0940,98.4317
1562.0582,97.8249
1563.0225,97.2524
1563.9867,96.8014
1564.9509,96.4714
1565.9152,96.2101
1566.8794,95.9429
1567.8436,95.6086
1568.8079,95.1971
1569.7721,94.7506
1570.7363,94.3214
1571.7006,93.9391
1572.6648,93.5984
1573.6290,93.2461
1574.5933,92.7953
1575.5575,92.2042
1576.5217,91.5525
1577.4860,90.9527
1578.4502,90.4182
1579.4144,89.9071
1580.3787,89.3908
1581.3429,88.8527
1582.3071,88.2823
1583.2714,87.6818
1584.2356,87.0656
1585.1998,86.4453
1586.1641,85.8222
1587.1283,85.1929
1588.0925,84.5602
1589.0568,83.9352
1590.0210,83.3309
1590.9852,82.7556
1591.9495,82.2147
1592.9137,81.7171
1593.8779,81.2783
1594.8422,80.9125
1595.8064,80.621
1596.7706,80.3897
1597.7349,80.1977
1598.6991,80.0301
1599.6633,79.8829
1600.6276,79.7618
1601.5918,79.6752
1602.5560,79.6265
1603.5203,79.6093
1604.4845,79.6118
1605.4487,79.6269
1606.4130,79.6607
1607.3772,79.7327
1608.3414,79.8617
1609.3057,80.0447
1610.2699,80.2528
1611.2341,80.4572
1612.1984,80.6581
1613.1626,80.8863
1614.1268,81.194
1615.0911,81.6447
1616.0553,82.2631
1617.0195,82.9407
1617.9838,83.4864
1618.9480,83.8314
1619.9122,84.0705
1620.8765,84.3394
1621.8407,84.7242
1622.8049,85.2311
1623.7692,85.7903
1624.7334,86.3111
1625.6976,86.7594
1626.6619,87.1704
1627.6261,87.5862
1628.5903,88.0038
1629.5546,88.3886
1630.5188,88.7239
1631.4830,89.0293
1632.4473,89.3292
1633.4115,89.6203
1634.3757,89.8921
1635.3400,90.1833
1636.3042,90.5235
1637.2684,90.8175
1638.2327,90.9759
1639.1969,91.0334
1640.1611,91.0712
1641.1254,91.1421
1642.0896,91.2564
1643.0538,91.3839
1644.0181,91.4572
1644.9823,91.4084
1645.9465,91.2592
1646.9108,91.1379
1647.8750,91.138
1648.8392,91.2669
1649.8035,91.5131
1650.7677,91.8292
1651.7319,92.0971
1652.6962,92.2214
1653.6604,92.2142
1654.6246,92.0167
1655.5889,91.5961
1656.5531,91.1058
1657.5173,90.7078
1658.4816,90.457
1659.4458,90.3151
1660.4100,90.2028
1661.3743,90.062
1662.3385,89.8881
1663.3027,89.7039
1664.2670,89.5247
1665.2312,89.3568
1666.1954,89.1909
1667.1597,88.9931
1668.1239,88.7304
1669.0881,88.4261
1670.0524,88.1623
1671.0166,87.9935
1671.9808,87.9055
1672.9451,87.8588
1673.9093,87.8101
1674.8735,87.7044
1675.8378,87.4884
1676.8020,87.1497
1677.7662,86.7425
1678.7305,86.3623
1679.6947,86.0876
1680.6589,85.9324
1681.6232,85.835
1682.5874,85.7046
1683.5516,85.5116
1684.5159,85.2751
1685.4801,84.9602
1686.4443,84.5461
1687.4086,84.0911
1688.3728,83.6715
1689.3370,83.3326
1690.3013,83.0859
1691.2655,82.9159
1692.2297,82.7834
1693.1940,82.6287
1694.1582,82.3885
1695.1224,82.0354
1696.0867,81.6264
1697.0509,81.3019
1698.0151,81.1873
1698.9794,81.2538
1699.9436,81.3144
1700.9078,81.1992
1701.8721,80.8985
1702.8363,80.5326
1703.8005,80.2433
1704.7648,80.1221
1705.7290,80.1825
1706.6932,80.3639
1707.6575,80.5732
1708.6217,80.7482
1709.5859,80.8861
1710.5502,81.0189
1711.5144,81.1743
1712.4786,81.3576
1713.4429,81.5619
1714.4071,81.8034
1715.3713,82.1724
1716.3356,82.8078
1717.2998,83.6796
1718.2640,84.4829
1719.2283,84.9798
1720.1925,85.2193
1721.1567,85.3795
1722.1210,85.5987
1723.0852,85.9248
1724.0494,86.3302
1725.0137,86.7499
1725.9779,87.1252
1726.9421,87.4345
1727.9064,87.6957
1728.8706,87.9485
1729.8348,88.2343
1730.7991,88.5877
1731.7633,89.0406
1732.7275,89.6096
1733.6918,90.2252
1734.6560,90.709
1735.6202,90.9466
1736.5845,91.0087
1737.5487,91.048
1738.5129,91.1704
1739.4772,91.3951
1740.4414,91.6726
1741.4056,91.9294
1742.3699,92.1197
1743.3341,92.2494
1744.2983,92.3563
1745.2626,92.4767
1746.2268,92.632
1747.1910,92.8414
1748.1553,93.1391
1749.1195,93.5528
1750.0837,94.0373
1751.0480,94.4675
1752.0122,94.7452
1752.9764,94.8761
1753.9407,94.9325
1754.9049,94.9855
1755.8691,95.0711
1756.8334,95.1912
1757.7976,95.3316
1758.7618,95.4821
1759.7261,95.645
1760.6903,95.8273
1761.6545,96.0243
1762.6188,96.2141
1763.5830,96.3745
1764.5472,96.504
1765.5115,96.6201
1766.4757,96.7393
1767.4399,96.8606
1768.4042,96.9685
1769.3684,97.0519
1770.3326,97.1315
1771.2969,97.2632
1772.2611,97.4837
1773.2253,97.7458
1774.1896,97.9598
1775.1538,98.0931
1776.1180,98.1845
1777.0823,98.2886
1778.0465,98.4334
1779.0107,98.6147
1779.9750,98.8124
1780.9392,99.0087
1781.9034,99.1959
1782.8677,99.3712
1783.8319,99.5258
1784.7961,99.6438
1785.7604,99.7146
1786.7246,99.7481
1787.6888,99.7714
1788.6531,99.8068
1789.6173,99.8537
1790.5815,99.896
1791.5458,99.9287
1792.5100,99.9581
1793.4742,99.9716
1794.4385,99.9525
1795.4027,99.9174
1796.3669,99.9038
1797.3312,99.9334
1798.2954,100
1799.2596,100.084
1800.2239,100.167
1801.1881,100.24
1802.1523,100.293
1803.1166,100.323
1804.0808,100.334
1805.0450,100.332
1806.0093,100.32
1806.9735,100.301
1807.9377,100.277
1808.9020,100.254
1809.8662,100.248
1810.8304,100.27
1811.7947,100.313
1812.7589,100.363
1813.7231,100.408
1814.6874,100.444
1815.6516,100.47
1816.6158,100.483
1817.5801,100.483
1818.5443,100.471
1819.5085,100.453
1820.4728,100.438
1821.4370,100.433
1822.4012,100.437
1823.3655,100.442
1824.3297,100.436
1825.2939,100.412
1826.2582,100.367
1827.2224,100.313
1828.1866,100.272
1829.1509,100.266
1830.1151,100.296
1831.0793,100.333
1832.0436,100.34
1833.0078,100.311
1833.9720,100.264
1834.9363,100.22
1835.9005,100.188
1836.8647,100.165
1837.8290,100.149
1838.7932,100.156
1839.7574,100.203
1840.7217,100.274
1841.6859,100.353
1842.6501,100.407
1843.6144,100.421
1844.5786,100.401
1845.5428,100.361
1846.5071,100.313
1847.4713,100.274
1848.4355,100.265
1849.3998,100.289
1850.3640,100.331
1851.3282,100.371
1852.2925,100.393
1853.2567,100.398
1854.2209,100.393
1855.1852,100.383
1856.1494,100.374
1857.1136,100.364
1858.0779,100.358
1859.0421,100.357
1860.0063,100.363
1860.9706,100.368
1861.9348,100.362
1862.8990,100.337
1863.8633,100.293
1864.8275,100.236
1865.7917,100.174
1866.7560,100.126
1867.7202,100.125
1868.6844,100.193
1869.6487,100.303
1870.6129,100.395
1871.5771,100.439
1872.5414,100.446
1873.5056,100.443
1874.4698,100.445
1875.4341,100.451
1876.3983,100.457
1877.3625,100.461
1878.3268,100.462
1879.2910,100.462
1880.2552,100.463
1881.2195,100.461
1882.1837,100.453
1883.1479,100.44
1884.1122,100.424
1885.0764,100.413
1886.0406,100.41
1887.0049,100.416
1887.9691,100.428
1888.9333,100.44
1889.8976,100.447
1890.8618,100.44
1891.8260,100.421
1892.7903,100.397
1893.7545,100.38
1894.7188,100.38
1895.6830,100.399
1896.6472,100.429
1897.6115,100.458
1898.5757,100.477
1899.5399,100.482
1900.5042,100.478
1901.4684,100.468
1902.4326,100.455
1903.3969,100.44
1904.3611,100.418
1905.3253,100.387
1906.2896,100.348
1907.2538,100.311
1908.2180,100.287
1909.1823,100.286
1910.1465,100.305
1911.1107,100.334
1912.0750,100.361
1913.0392,100.385
1914.0034,100.408
1914.9677,100.432
1915.9319,100.452
1916.8961,100.458
1917.8604,100.441
1918.8246,100.396
1919.7888,100.33
1920.7531,100.265
1921.7173,100.224
1922.6815,100.222
1923.6458,100.256
1924.6100,100.307
1925.5742,100.353
1926.5385,100.381
1927.5027,100.391
1928.4669,100.391
1929.4312,100.386
1930.3954,100.382
1931.3596,100.38
1932.3239,100.38
1933.2881,100.384
1934.2523,100.39
1935.2166,100.396
1936.1808,100.396
1937.1450,100.389
1938.1093,100.375
1939.0735,100.355
1940.0377,100.331
1941.0020,100.307
1941.9662,100.289
1942.9304,100.284
1943.8947,100.292
1944.8589,100.307
1945.8231,100.327
1946.7874,100.353
1947.7516,100.381
1948.7158,100.407
1949.6801,100.424
1950.6443,100.43
1951.6085,100.427
1952.5728,100.422
1953.5370,100.422
1954.5012,100.429
1955.4655,100.444
1956.4297,100.46
1957.3939,100.475
1958.3582,100.485
1959.3224,100.491
1960.2866,100.494
1961.2509,100.494
1962.2151,100.489
1963.1793,100.478
1964.1436,100.461
1965.1078,100.447
1966.0720,100.442
1967.0363,100.453
1968.0005,100.481
1968.9647,100.516
1969.9290,100.548
1970.8932,100.569
1971.8574,100.58
1972.8217,100.583
1973.7859,100.582
1974.7501,100.58
1975.7144,100.58
1976.6786,100.581
1977.6428,100.583
1978.6071,100.586
1979.5713,100.587
1980.5355,100.587
1981.4998,100.586
1982.4640,100.582
1983.4282,100.577
1984.3925,100.569
1985.3567,100.559
1986.3209,100.548
1987.2852,100.536
1988.2494,100.525
1989.2136,100.515
1990.1779,100.508
1991.1421,100.508
1992.1063,100.515
1993.0706,100.527
1994.0348,100.539
1994.9990,100.547
1995.9633,100.549
1996.9275,100.548
1997.8917,100.545
1998.8560,100.543
1999.8202,100.544
2000.7844,100.548
2001.7487,100.552
2002.7129,100.553
2003.6771,100.547
2004.6414,100.536
2005.6056,100.52
2006.5698,100.505
2007.5341,100.496
2008.4983,100.494
2009.4625,100.497
2010.4268,100.501
2011.3910,100.501
2012.3552,100.492
2013.3195,100.474
2014.2837,100.448
2015.2479,100.422
2016.2122,100.403
2017.1764,100.397
2018.1406,100.403
2019.1049,100.417
2020.0691,100.43
2021.0333,100.438
2021.9976,100.441
2022.9618,100.44
2023.9260,100.438
2024.8903,100.437
2025.8545,100.438
2026.8187,100.441
2027.7830,100.442
2028.7472,100.443
2029.7114,100.443
2030.6757,100.442
2031.6399,100.439
2032.6041,100.434
2033.5684,100.429
2034.5326,100.423
2035.4968,100.417
2036.4611,100.41
2037.4253,100.4
2038.3895,100.387
2039.3538,100.373
2040.3180,100.362
2041.2822,100.356
2042.2465,100.357
2043.2107,100.365
2044.1749,100.375
2045.1392,100.383
2046.1034,100.387
2047.0676,100.386
2048.0320,100.383
2048.9961,100.378
2049.9604,100.374
2050.9246,100.372
2051.8889,100.37
2052.8530,100.369
2053.8174,100.366
2054.7815,100.362
2055.7458,100.357
2056.7100,100.352
2057.6743,100.347
2058.6384,100.343
2059.6028,100.337
2060.5669,100.329
2061.5313,100.319
2062.4954,100.308
2063.4597,100.301
2064.4238,100.303
2065.3882,100.315
2066.3523,100.333
2067.3167,100.354
2068.2808,100.372
2069.2451,100.383
2070.2092,100.389
2071.1736,100.392
2072.1377,100.394
2073.1021,100.396
2074.0662,100.399
2075.0305,100.4
2075.9946,100.4
2076.9590,100.399
2077.9231,100.399
2078.8875,100.4
2079.8516,100.404
2080.8159,100.41
2081.7800,100.417
2082.7444,100.423
2083.7085,100.426
2084.6729,100.428
2085.6370,100.428
2086.6013,100.428
2087.5654,100.43
2088.5298,100.434
2089.4939,100.439
2090.4583,100.444
2091.4224,100.448
2092.3867,100.449
2093.3508,100.449
2094.3152,100.449
2095.2793,100.451
2096.2437,100.455
2097.2078,100.46
2098.1721,100.465
2099.1362,100.468
2100.1006,100.468
2101.0647,100.467
2102.0291,100.465
2102.9932,100.463
2103.9575,100.462
2104.9216,100.462
2105.8860,100.462
2106.8501,100.46
2107.8145,100.458
2108.7786,100.455
2109.7429,100.453
2110.7070,100.45
2111.6714,100.449
2112.6355,100.448
2113.5999,100.449
2114.5640,100.452
2115.5283,100.457
2116.4924,100.463
2117.4568,100.467
2118.4209,100.467
2119.3853,100.463
2120.3494,100.455
2121.3137,100.446
2122.2778,100.439
2123.2422,100.436
2124.2063,100.437
2125.1707,100.44
2126.1348,100.444
2127.0991,100.447
2128.0632,100.451
2129.0276,100.456
2129.9917,100.462
2130.9561,100.467
2131.9202,100.469
2132.8845,100.466
2133.8486,100.46
2134.8130,100.455
2135.7771,100.454
2136.7415,100.46
2137.7056,100.472
2138.6699,100.488
2139.6340,100.501
2140.5984,100.509
2141.5625,100.511
2142.5269,100.509
2143.4910,100.508
2144.4553,100.511
2145.4194,100.52
2146.3838,100.531
2147.3479,100.543
2148.3123,100.551
2149.2764,100.555
2150.2407,100.555
2151.2048,100.551
2152.1692,100.547
2153.1333,100.543
2154.0977,100.543
2155.0618,100.546
2156.0261,100.551
2156.9902,100.557
2157.9546,100.563
2158.9187,100.569
2159.8831,100.575
2160.8472,100.582
2161.8115,100.59
2162.7756,100.597
2163.7400,100.602
2164.7041,100.604
2165.6685,100.603
2166.6326,100.6
2167.5969,100.596
2168.5610,100.593
2169.5254,100.591
2170.4895,100.591
2171.4539,100.592
2172.4180,100.595
2173.3823,100.599
2174.3464,100.603
2175.3108,100.606
2176.2749,100.607
2177.2393,100.606
2178.2034,100.603
2179.1677,100.6
2180.1318,100.596
2181.0962,100.592
2182.0603,100.587
2183.0247,100.582
2183.9888,100.576
2184.9531,100.572
2185.9172,100.572
2186.8816,100.576
2187.8457,100.584
2188.8101,100.593
2189.7742,100.602
2190.7385,100.607
2191.7026,100.61
2192.6670,100.611
2193.6311,100.611
2194.5955,100.612
2195.5596,100.614
2196.5239,100.615
2197.4880,100.614
2198.4524,100.612
2199.4165,100.608
2200.3809,100.606
2201.3450,100.606
2202.3093,100.607
2203.2734,100.61
2204.2378,100.612
2205.2019,100.613
2206.1663,100.613
2207.1304,100.613
2208.0947,100.615
2209.0588,100.618
2210.0232,100.62
2210.9873,100.62
2211.9517,100.618
2212.9158,100.614
2213.8801,100.609
2214.8442,100.607
2215.8086,100.606
2216.7727,100.604
2217.7371,100.601
2218.7012,100.594
2219.6655,100.585
2220.6296,100.578
2221.5940,100.573
2222.5581,100.573
2223.5225,100.576
2224.4866,100.579
2225.4509,100.58
2226.4150,100.576
2227.3794,100.568
2228.3435,100.556
2229.3079,100.542
2230.2720,100.528
2231.2363,100.517
2232.2004,100.509
2233.1648,100.503
2234.1289,100.5
2235.0933,100.499
2236.0574,100.498
2237.0217,100.496
2237.9858,100.492
2238.9502,100.485
2239.9143,100.474
2240.8787,100.462
2241.8428,100.448
2242.8071,100.435
2243.7712,100.423
2244.7356,100.413
2245.6997,100.402
2246.6641,100.391
2247.6282,100.378
2248.5925,100.365
2249.5566,100.35
2250.5210,100.333
2251.4851,100.314
2252.4495,100.292
2253.4136,100.268
2254.3779,100.243
2255.3420,100.22
2256.3064,100.201
2257.2705,100.184
2258.2349,100.17
2259.1990,100.156
2260.1633,100.141
2261.1274,100.125
2262.0918,100.109
2263.0559,100.095
2264.0203,100.083
2264.9844,100.074
2265.9487,100.068
2266.9128,100.062
2267.8772,100.054
2268.8413,100.043
2269.8057,100.028
2270.7698,100.011
2271.7341,99.9949
2272.6982,99.9839
2273.6626,99.9797
2274.6267,99.9824
2275.5911,99.9908
2276.5552,100.003
2277.5195,100.018
2278.4836,100.036
2279.4480,100.054
2280.4121,100.07
2281.3765,100.081
2282.3406,100.082
2283.3049,100.067
2284.2690,100.035
2285.2334,99.9878
2286.1975,99.9295
2287.1619,99.8669
2288.1260,99.8057
2289.0903,99.7482
2290.0544,99.6937
2291.0188,99.6404
2291.9829,99.5878
2292.9473,99.539
2293.9114,99.4981
2294.8757,99.4687
2295.8398,99.4511
2296.8042,99.4436
2297.7683,99.4458
2298.7327,99.4602
2299.6968,99.4924
2300.6611,99.5466
2301.6252,99.6199
2302.5896,99.7006
2303.5537,99.7704
2304.5181,99.8125
2305.4822,99.82
2306.4465,99.8023
2307.4106,99.7833
2308.3750,99.7926
2309.3391,99.8521
2310.3035,99.9645
2311.2676,100.112
2312.2319,100.263
2313.1960,100.391
2314.1604,100.486
2315.1245,100.557
2316.0889,100.626
2317.0530,100.714
2318.0173,100.828
2318.9814,100.951
2319.9458,101.041
2320.9099,101.044
2321.8743,100.916
2322.8384,100.65
2323.8027,100.289
2324.7668,99.9188
2325.7312,99.6331
2326.6953,99.4974
2327.6597,99.5214
2328.6238,99.652
2329.5881,99.7926
2330.5522,99.845
2331.5166,99.7568
2332.4807,99.544
2333.4451,99.2749
2334.4092,99.0269
2335.3735,98.8475
2336.3376,98.7388
2337.3020,98.665
2338.2661,98.5772
2339.2305,98.4442
2340.1946,98.2819
2341.1589,98.1745
2342.1230,98.2594
2343.0874,98.6223
2344.0515,99.131
2345.0159,99.4638
2345.9800,99.4156
2346.9443,99.0791
2347.9084,98.7105
2348.8728,98.5353
2349.8369,98.6199
2350.8013,98.8745
2351.7654,99.1131
2352.7297,99.1597
2353.6938,98.975
2354.6582,98.6651
2355.6223,98.3374
2356.5867,98.0001
2357.5508,97.6317
2358.5151,97.2792
2359.4792,97.0397
2360.4436,96.9683
2361.4077,97.0441
2362.3721,97.2257
2363.3362,97.5023
2364.3005,97.8819
2365.2646,98.3535
2366.2290,98.8784
2367.1931,99.4115
2368.1575,99.92
2369.1216,100.384
2370.0859,100.789
2371.0500,101.121
2372.0144,101.368
2372.9785,101.524
2373.9429,101.585
2374.9070,101.549
2375.8713,101.422
2376.8354,101.219
2377.7998,100.962
2378.7639,100.684
2379.7283,100.418
2380.6924,100.19
2381.6567,100.017
2382.6208,99.9052
2383.5852,99.8488
2384.5493,99.8352
2385.5137,99.8484
2386.4778,99.8732
2387.4421,99.8979
2388.4063,99.9158
2389.3706,99.9248
2390.3347,99.9267
2391.2991,99.9252
2392.2632,99.924
2393.2275,99.9256
2394.1917,99.9307
2395.1560,99.9378
2396.1201,99.9451
2397.0845,99.9509
2398.0486,99.9541
2399.0129,99.9551
2399.9771,99.9547
2400.9414,99.9529
2401.9055,99.9502
2402.8699,99.9469
2403.8340,99.9441
2404.7983,99.9434
2405.7625,99.946
2406.7268,99.9514
2407.6909,99.9583
2408.6553,99.9644
2409.6194,99.9687
2410.5837,99.9711
2411.5479,99.9725
2412.5122,99.9735
2413.4763,99.974
2414.4407,99.9732
2415.4048,99.9708
2416.3691,99.9677
2417.3333,99.966
2418.2976,99.9675
2419.2617,99.972
2420.2261,99.9769
2421.1902,99.979
2422.1545,99.976
2423.1187,99.9685
2424.0830,99.9594
2425.0471,99.9528
2426.0115,99.9513
2426.9756,99.9553
2427.9399,99.9629
2428.9041,99.9714
2429.8684,99.9784
2430.8325,99.9831
2431.7969,99.9852
2432.7610,99.9848
2433.7253,99.982
2434.6895,99.9773
2435.6538,99.9717
2436.6179,99.9674
2437.5823,99.9666
2438.5464,99.9707
2439.5107,99.9789
2440.4749,99.9888
2441.4392,99.9971
2442.4033,100.001
2443.3677,100
2444.3318,99.9944
2445.2961,99.9864
2446.2603,99.978
2447.2246,99.9706
2448.1887,99.965
2449.1531,99.9613
2450.1172,99.9597
2451.0815,99.9604
2452.0457,99.9633
2453.0100,99.968
2453.9741,99.9734
2454.9385,99.9778
2455.9026,99.9793
2456.8669,99.9767
2457.8311,99.97
2458.7954,99.9605
2459.7595,99.9506
2460.7239,99.9425
2461.6880,99.938
2462.6523,99.9372
2463.6165,99.9392
2464.5808,99.942
2465.5449,99.9434
2466.5093,99.9418
2467.4734,99.9365
2468.4377,99.9277
2469.4019,99.9169
2470.3662,99.906
2471.3303,99.8969
2472.2947,99.8912
2473.2588,99.8893
2474.2231,99.8907
2475.1873,99.8939
2476.1516,99.8974
2477.1157,99.8999
2478.0801,99.9006
2479.0442,99.9
2480.0085,99.8985
2480.9727,99.8968
2481.9370,99.895
2482.9011,99.8928
2483.8655,99.8898
2484.8296,99.8861
2485.7939,99.8823
2486.7581,99.8792
2487.7224,99.8769
2488.6865,99.8747
2489.6509,99.8716
2490.6150,99.8667
2491.5793,99.8602
2492.5435,99.8533
2493.5078,99.848
2494.4719,99.8459
2495.4363,99.8473
2496.4004,99.8513
2497.3647,99.8559
2498.3289,99.8593
2499.2932,99.8597
2500.2573,99.857
2501.2217,99.8516
2502.1858,99.8452
2503.1501,99.8394
2504.1143,99.8355
2505.0786,99.8339
2506.0427,99.8339
2507.0071,99.834
2507.9712,99.8323
2508.9355,99.8273
2509.8997,99.8186
2510.8640,99.8073
2511.8281,99.7955
2512.7925,99.7864
2513.7566,99.7824
2514.7209,99.7847
2515.6851,99.7924
2516.6494,99.8026
2517.6135,99.8116
2518.5779,99.8161
2519.5420,99.8146
2520.5063,99.8077
2521.4705,99.7977
2522.4348,99.7871
2523.3989,99.7777
2524.3633,99.7703
2525.3274,99.7649
2526.2917,99.7615
2527.2559,99.76
2528.2202,99.7601
2529.1843,99.761
2530.1487,99.7616
2531.1128,99.7604
2532.0771,99.7571
2533.0413,99.7525
2534.0056,99.7479
2534.9697,99.7451
2535.9341,99.7449
2536.8982,99.747
2537.8625,99.7499
2538.8267,99.7522
2539.7910,99.7527
2540.7551,99.7508
2541.7195,99.7471
2542.6836,99.7428
2543.6479,99.7392
2544.6121,99.7372
2545.5764,99.7365
2546.5405,99.7361
2547.5049,99.7345
2548.4690,99.7309
2549.4333,99.726
2550.3975,99.7216
2551.3618,99.7198
2552.3259,99.722
2553.2903,99.728
2554.2544,99.7357
2555.2188,99.7429
2556.1829,99.7475
2557.1472,99.749
2558.1113,99.7481
2559.0757,99.7463
2560.0398,99.7446
2561.0042,99.743
2561.9683,99.7404
2562.9326,99.7361
2563.8967,99.7306
2564.8611,99.7256
2565.8252,99.7237
2566.7896,99.7264
2567.7537,99.733
2568.7180,99.7407
2569.6821,99.7466
2570.6465,99.7487
2571.6106,99.7473
2572.5750,99.7438
2573.5391,99.7397
2574.5034,99.7352
2575.4675,99.7298
2576.4319,99.7233
2577.3960,99.717
2578.3604,99.7134
2579.3245,99.7143
2580.2888,99.7201
2581.2529,99.7289
2582.2173,99.7375
2583.1814,99.7432
2584.1458,99.7448
2585.1099,99.7422
2586.0742,99.7361
2587.0383,99.727
2588.0027,99.7159
2588.9668,99.7043
2589.9312,99.6942
2590.8953,99.6877
2591.8596,99.6856
2592.8237,99.6869
2593.7881,99.6888
2594.7522,99.6886
2595.7166,99.6852
2596.6807,99.6796
2597.6450,99.6747
2598.6091,99.6729
2599.5735,99.6753
2600.5376,99.6806
2601.5020,99.6861
2602.4661,99.6892
2603.4304,99.6886
2604.3945,99.6853
2605.3589,99.6817
2606.3230,99.68
2607.2874,99.6815
2608.2515,99.6858
2609.2158,99.6911
2610.1799,99.6954
2611.1443,99.6976
2612.1084,99.698
2613.0728,99.6977
2614.0369,99.6985
2615.0012,99.7013
2615.9653,99.7058
2616.9297,99.7106
2617.8938,99.7143
2618.8582,99.7161
2619.8223,99.7158
2620.7866,99.7142
2621.7507,99.7119
2622.7151,99.7091
2623.6792,99.7057
2624.6436,99.7022
2625.6077,99.6995
2626.5720,99.6989
2627.5361,99.7011
2628.5005,99.7055
2629.4646,99.7106
2630.4290,99.715
2631.3931,99.7177
2632.3574,99.7188
2633.3215,99.7187
2634.2859,99.7175
2635.2500,99.7145
2636.2144,99.7095
2637.1785,99.703
2638.1428,99.6973
2639.1069,99.695
2640.0713,99.6981
2641.0354,99.7067
2641.9998,99.7184
2642.9639,99.7299
2643.9282,99.7385
2644.8923,99.7428
2645.8567,99.7435
2646.8208,99.742
2647.7852,99.7396
2648.7493,99.737
2649.7136,99.7343
2650.6777,99.7317
2651.6421,99.7296
2652.6062,99.7291
2653.5706,99.7309
2654.5347,99.7352
2655.4990,99.7417
2656.4631,99.7494
2657.4275,99.7575
2658.3916,99.7652
2659.3560,99.772
2660.3201,99.778
2661.2844,99.7834
2662.2485,99.7888
2663.2129,99.7952
2664.1770,99.8033
2665.1414,99.8136
2666.1055,99.8257
2667.0698,99.8383
2668.0339,99.8502
2668.9983,99.8603
2669.9624,99.8684
2670.9268,99.8752
2671.8909,99.8823
2672.8552,99.8911
2673.8193,99.9027
2674.7837,99.9168
2675.7478,99.9318
2676.7122,99.945
2677.6763,99.9535
2678.6406,99.9554
2679.6047,99.9508
2680.5691,99.9415
2681.5332,99.9306
2682.4976,99.9205
2683.4617,99.9123
2684.4260,99.9051
2685.3901,99.8975
2686.3545,99.8885
2687.3186,99.8792
2688.2830,99.8722
2689.2471,99.8703
2690.2114,99.8754
2691.1755,99.887
2692.1399,99.9018
2693.1040,99.9157
2694.0684,99.925
2695.0325,99.9278
2695.9968,99.9249
2696.9609,99.9186
2697.9253,99.9116
2698.8894,99.9059
2699.8538,99.9024
2700.8179,99.9006
2701.7822,99.8994
2702.7463,99.8973
2703.7107,99.893
2704.6748,99.8858
2705.6392,99.8757
2706.6033,99.8638
2707.5676,99.8521
2708.5317,99.8426
2709.4961,99.8366
2710.4602,99.8343
2711.4246,99.8342
2712.3887,99.8341
2713.3530,99.8316
2714.3171,99.8248
2715.2815,99.8131
2716.2456,99.7977
2717.2100,99.7805
2718.1741,99.7647
2719.1384,99.7526
2720.1025,99.7459
2721.0669,99.7444
2722.0310,99.7464
2722.9954,99.7492
2723.9595,99.75
2724.9238,99.7468
2725.8879,99.7391
2726.8523,99.7279
2727.8164,99.7156
2728.7808,99.7047
2729.7449,99.6974
2730.7092,99.6945
2731.6733,99.6953
2732.6377,99.698
2733.6018,99.7001
2734.5662,99.6999
2735.5303,99.6966
2736.4946,99.691
2737.4587,99.6846
2738.4231,99.6793
2739.3872,99.677
2740.3516,99.6786
2741.3157,99.6846
2742.2800,99.6951
2743.2441,99.7093
2744.2085,99.7258
2745.1726,99.7421
2746.1370,99.7551
2747.1011,99.762
2748.0654,99.7618
2749.0295,99.7559
2749.9939,99.748
2750.9580,99.7425
2751.9224,99.7422
2752.8865,99.7473
2753.8508,99.7547
2754.8149,99.7602
2755.7793,99.7598
2756.7434,99.752
2757.7078,99.7376
2758.6719,99.7196
2759.6362,99.7016
2760.6003,99.6866
2761.5647,99.676
2762.5288,99.6695
2763.4932,99.6656
2764.4573,99.6622
2765.4216,99.6577
2766.3857,99.6519
2767.3501,99.6467
2768.3142,99.6441
2769.2786,99.6421
2770.2427,99.6388
2771.2070,99.6313
2772.1711,99.6166
2773.1355,99.5941
2774.0996,99.5658
2775.0640,99.5354
2776.0281,99.5066
2776.9924,99.4809
2777.9565,99.4573
2778.9209,99.4332
2779.8850,99.4064
2780.8494,99.3764
2781.8135,99.3447
2782.7778,99.3139
2783.7419,99.2861
2784.7063,99.2621
2785.6704,99.2406
2786.6348,99.2191
2787.5989,99.1946
2788.5632,99.1648
2789.5273,99.129
2790.4917,99.0889
2791.4558,99.0473
2792.4202,99.0074
2793.3843,98.9712
2794.3486,98.9382
2795.3127,98.9057
2796.2771,98.8702
2797.2412,98.8291
2798.2056,98.7817
2799.1697,98.7294
2800.1340,98.6744
2801.0981,98.6187
2802.0625,98.5634
2803.0266,98.509
2803.9910,98.4553
2804.9551,98.402
2805.9194,98.348
2806.8835,98.291
2807.8479,98.2283
2808.8120,98.1574
2809.7764,98.0778
2810.7405,97.991
2811.7048,97.8997
2812.6689,97.8067
2813.6333,97.7127
2814.5974,97.6166
2815.5618,97.5158
2816.5259,97.4076
2817.4902,97.2902
2818.4543,97.1627
2819.4187,97.0244
2820.3828,96.8737
2821.3472,96.7088
2822.3113,96.5277
2823.2756,96.3295
2824.2397,96.1147
2825.2041,95.8849
2826.1682,95.6412
2827.1326,95.3836
2828.0967,95.1109
2829.0610,94.8218
2830.0251,94.5158
2830.9895,94.1943
2831.9536,93.8607
2832.9180,93.5197
2833.8821,93.1755
2834.8464,92.8318
2835.8105,92.4913
2836.7749,92.1558
2837.7390,91.8272
2838.7034,91.5067
2839.6675,91.1941
2840.6318,90.8864
2841.5959,90.5768
2842.5603,90.2566
2843.5244,89.9197
2844.4888,89.5682
2845.4529,89.2161
2846.4172,88.8889
2847.3813,88.6157
2848.3457,88.4189
2849.3098,88.3043
2850.2742,88.2585
2851.2383,88.2551
2852.2026,88.2648
2853.1667,88.2666
2854.1311,88.2517
2855.0952,88.2217
2856.0596,88.1819
2857.0237,88.1355
2857.9880,88.0814
2858.9521,88.0155
2859.9165,87.9342
2860.8806,87.8369
2861.8450,87.7261
2862.8091,87.6062
2863.7734,87.4814
2864.7375,87.3554
2865.7019,87.231
2866.6660,87.1102
2867.6304,86.9953
2868.5945,86.8878
2869.5588,86.7892
2870.5229,86.6998
2871.4873,86.6192
2872.4514,86.5459
2873.4158,86.4781
2874.3799,86.4139
2875.3442,86.3517
2876.3083,86.2908
2877.2727,86.2305
2878.2368,86.17
2879.2012,86.1087
2880.1653,86.0468
2881.1296,85.9861
2882.0938,85.9301
2883.0581,85.8828
2884.0222,85.8474
2884.9866,85.8247
2885.9507,85.8117
2886.9150,85.8029
2887.8792,85.7911
2888.8435,85.7706
2889.8076,85.739
2890.7720,85.6983
2891.7361,85.6529
2892.7004,85.6056
2893.6646,85.5533
2894.6289,85.4855
2895.5930,85.3881
2896.5574,85.2516
2897.5215,85.0784
2898.4858,84.8854
2899.4500,84.6979
2900.4143,84.5387
2901.3784,84.418
2902.3428,84.3292
2903.3069,84.254
2904.2712,84.1708
2905.2354,84.0635
2906.1997,83.9243
2907.1638,83.7516
2908.1282,83.5459
2909.0923,83.3081
2910.0566,83.041
2911.0208,82.7513
2911.9851,82.4519
2912.9492,82.1604
2913.9136,81.8953
2914.8777,81.6712
2915.8420,81.4948
2916.8062,81.3637
2917.7705,81.2678
2918.7346,81.1934
2919.6990,81.1277
2920.6631,81.0625
2921.6274,80.9952
2922.5916,80.9273
2923.5559,80.8615
2924.5200,80.7996
2925.4844,80.7425
2926.4485,80.6909
2927.4128,80.6473
2928.3770,80.6163
2929.3413,80.6036
2930.3054,80.6141
2931.2698,80.6511
2932.2339,80.716
2933.1982,80.8094
2934.1624,80.9309
2935.1267,81.0799
2936.0908,81.2547
2937.0552,81.4522
2938.0193,81.6682
2938.9836,81.8983
2939.9478,82.1391
2940.9121,82.3887
2941.8762,82.6455
2942.8406,82.907
2943.8047,83.1686
2944.7690,83.4231
2945.7332,83.6625
2946.6975,83.8799
2947.6616,84.0718
2948.6260,84.2383
2949.5901,84.3825
2950.5544,84.5082
2951.5186,84.6188
2952.4829,84.717
2953.4470,84.8056
2954.4114,84.8888
2955.3755,84.972
2956.3398,85.0611
2957.3040,85.1606
2958.2683,85.2715
2959.2324,85.3916
2960.1968,85.5167
2961.1609,85.6424
2962.1252,85.7666
2963.0894,85.8899
2964.0537,86.0148
2965.0178,86.1446
2965.9822,86.2816
2966.9463,86.4273
2967.9106,86.5831
2968.8748,86.7512
2969.8391,86.9346
2970.8032,87.1364
2971.7676,87.3582
2972.7317,87.5994
2973.6960,87.8569
2974.6602,88.1259
2975.6245,88.4008
2976.5886,88.6762
2977.5530,88.9486
2978.5171,89.2168
2979.4814,89.4818
2980.4456,89.7442
2981.4099,90.0012
2982.3740,90.2442
2983.3384,90.4621
2984.3025,90.6482
2985.2668,90.8094
2986.2310,90.9688
2987.1953,91.16
2988.1594,91.411
2989.1238,91.7299
2990.0879,92.0971
2991.0522,92.4736
2992.0164,92.8181
2992.9807,93.1052
2993.9448,93.3338
2994.9092,93.5225
2995.8733,93.6966
2996.8376,93.8745
2997.8018,94.0618
2998.7661,94.2541
2999.7302,94.4441
3000.6946,94.6278
3001.6587,94.807
3002.6230,94.9875
3003.5872,95.1754
3004.5515,95.3741
3005.5156,95.5826
3006.4800,95.7956
3007.4441,96.0056
3008.4084,96.2062
3009.3726,96.3945
3010.3369,96.5726
3011.3010,96.746
3012.2654,96.9203
3013.2295,97.0971
3014.1938,97.2731
3015.1580,97.4419
3016.1223,97.5977
3017.0864,97.7379
3018.0508,97.8637
3019.0149,97.9776
3019.9792,98.0816
3020.9434,98.1766
3021.9077,98.2636
3022.8718,98.3445
3023.8362,98.4224
3024.8003,98.4993
3025.7646,98.5742
3026.7288,98.6435
3027.6931,98.7032
3028.6572,98.7523
3029.6216,98.7942
3030.5857,98.8352
3031.5500,98.8814
3032.5142,98.9348
3033.4785,98.9925
3034.4426,99.0492
3035.4070,99.0999
3036.3711,99.1423
3037.3354,99.1769
3038.2996,99.2049
3039.2639,99.227
3040.2280,99.2427
3041.1924,99.2507
3042.1565,99.2502
3043.1208,99.2416
3044.0850,99.227
3045.0493,99.2096
3046.0134,99.1933
3046.9778,99.181
3047.9419,99.1729
3048.9063,99.1665
3049.8704,99.1571
3050.8347,99.1401
3051.7988,99.1135
3052.7632,99.0791
3053.7273,99.042
3054.6917,98.9764
3055.6558,98.9113
3056.6201,98.8582
3057.5842,98.8149
3058.5486,98.7756
3059.5127,98.7327
3060.4771,98.6796
3061.4412,98.6137
3062.4055,98.5377
3063.3696,98.4595
3064.3340,98.388
3065.2981,98.3298
3066.2625,98.2852
3067.2266,98.2491
3068.1909,98.2144
3069.1550,98.1759
3070.1194,98.1325
3071.0835,98.0861
3072.0479,98.0385
3073.0120,97.9889
3073.9763,97.9342
3074.9404,97.871
3075.9048,97.7995
3076.8689,97.724
3077.8333,97.6519
3078.7974,97.5893
3079.7617,97.5382
3080.7258,97.4944
3081.6902,97.4508
3082.6543,97.4008
3083.6187,97.3418
3084.5828,97.2757
3085.5471,97.2078
3086.5112,97.143
3087.4756,97.0837
3088.4397,97.0283
3089.4041,96.9719
3090.3682,96.9092
3091.3325,96.8368
3092.2966,96.7539
3093.2610,96.663
3094.2251,96.5677
3095.1895,96.4718
3096.1536,96.3773
3097.1179,96.285
3098.0820,96.1953
3099.0464,96.109
3100.0105,96.0275
3100.9749,95.9523
3101.9390,95.8833
3102.9033,95.8191
3103.8674,95.7565
3104.8318,95.692
3105.7959,95.6228
3106.7603,95.5473
3107.7244,95.4652
3108.6887,95.3765
3109.6528,95.2817
3110.6172,95.1819
3111.5813,95.0789
3112.5457,94.9757
3113.5098,94.8764
3114.4741,94.7842
3115.4382,94.7005
3116.4026,94.6239
3117.3667,94.5511
3118.3311,94.4783
3119.2952,94.4034
3120.2595,94.326
3121.2236,94.2472
3122.1880,94.1686
3123.1521,94.0909
3124.1165,94.0146
3125.0806,93.9396
3126.0449,93.8649
3127.0090,93.7888
3127.9734,93.7083
3128.9375,93.6206
3129.9019,93.5251
3130.8660,93.4247
3131.8303,93.3262
3132.7944,93.2368
3133.7588,93.161
3134.7229,93.0976
3135.6873,93.0403
3136.6514,92.9804
3137.6157,92.9114
3138.5798,92.8309
3139.5442,92.7415
3140.5083,92.6479
3141.4727,92.5542
3142.4368,92.4619
3143.4011,92.3704
3144.3652,92.2778
3145.3296,92.1835
3146.2937,92.0886
3147.2581,91.9956
3148.2222,91.9068
3149.1865,91.823
3150.1506,91.7423
3151.1150,91.6616
3152.0791,91.578
3153.0435,91.4898
3154.0076,91.3975
3154.9719,91.3028
3155.9360,91.2075
3156.9004,91.1133
3157.8645,91.021
3158.8289,90.9313
3159.7930,90.8439
3160.7573,90.7579
3161.7214,90.6717
3162.6858,90.5836
3163.6499,90.4927
3164.6143,90.3998
3165.5784,90.3066
3166.5427,90.2155
3167.5068,90.1284
3168.4712,90.0457
3169.4353,90.0155
3170.3997,89.9365
3171.3638,89.8535
3172.3281,89.7632
3173.2922,89.664
3174.2566,89.5576
3175.2207,89.4489
3176.1851,89.3448
3177.1492,89.2512
3178.1135,89.1697
3179.0776,89.0971
3180.0420,89.0272
3181.0061,88.9544
3181.9705,88.8767
3182.9346,88.796
3183.8989,88.7159
3184.8630,88.6389
3185.8274,88.5646
3186.7915,88.4902
3187.7559,88.4127
3188.7200,88.3306
3189.6843,88.2448
3190.6484,88.1567
3191.6128,88.0672
3192.5769,87.9765
3193.5413,87.8847
3194.5054,87.7936
3195.4697,87.7066
3196.4338,87.6276
3197.3982,87.558
3198.3623,87.4961
3199.3267,87.4376
3200.2908,87.3779
3201.2551,87.3146
3202.2192,87.2476
3203.1836,87.1776
3204.1477,87.1046
3205.1121,87.0277
3206.0762,86.9463
3207.0405,86.8614
3208.0046,86.7762
3208.9690,86.6945
3209.9331,86.6182
3210.8975,86.5466
3211.8616,86.4771
3212.8259,86.4082
3213.7900,86.3408
3214.7544,86.2774
3215.7185,86.22
3216.6829,86.1674
3217.6470,86.1158
3218.6113,86.0605
3219.5754,85.9984
3220.5398,85.9298
3221.5039,85.8575
3222.4683,85.7848
3223.4324,85.7146
3224.3967,85.649
3225.3608,85.5901
3226.3252,85.5392
3227.2893,85.4963
3228.2537,85.4587
3229.2178,85.4211
3230.1821,85.3771
3231.1462,85.3227
3232.1106,85.2575
3233.0747,85.1855
3234.0391,85.1129
3235.0032,85.0456
3235.9675,84.9865
3236.9316,84.9348
3237.8960,84.8868
3238.8601,84.8373
3239.8245,84.7824
3240.7886,84.7212
3241.7529,84.6567
3242.7170,84.5946
3243.6814,84.5408
3244.6455,84.4985
3245.6099,84.4659
3246.5740,84.4369
3247.5383,84.4041
3248.5024,84.3625
3249.4668,84.3109
3250.4309,84.2523
3251.3953,84.1907
3252.3594,84.13
3253.3237,84.0719
3254.2878,84.0171
3255.2522,83.9663
3256.2163,83.921
3257.1807,83.8826
3258.1448,83.851
3259.1091,83.8233
3260.0732,83.7948
3261.0376,83.7604
3262.0017,83.7183
3262.9661,83.6697
3263.9302,83.6186
3264.8945,83.5685
3265.8586,83.5208
3266.8230,83.4743
3267.7871,83.4263
3268.7515,83.3749
3269.7156,83.3196
3270.6799,83.2618
3271.6440,83.204
3272.6084,83.1492
3273.5725,83.1001
3274.5369,83.0592
3275.5010,83.0279
3276.4653,83.0052
3277.4294,82.9878
3278.3938,82.971
3279.3579,82.95
3280.3223,82.922
3281.2864,82.8871
3282.2507,82.8474
3283.2148,82.8054
3284.1792,82.7623
3285.1433,82.7177
3286.1077,82.6702
3287.0718,82.6196
3288.0361,82.5669
3289.0002,82.5148
3289.9646,82.4665
3290.9287,82.4247
3291.8931,82.3906
3292.8572,82.3644
3293.8215,82.3447
3294.7856,82.3285
3295.7500,82.3112
3296.7141,82.2876
3297.6785,82.2541
3298.6426,82.211
3299.6069,82.1628
3300.5710,82.1161
3301.5354,82.0764
3302.4995,82.045
3303.4639,82.0188
3304.4280,81.9933
3305.3923,81.9652
3306.3564,81.9346
3307.3208,81.904
3308.2849,81.8765
3309.2493,81.8532
3310.2134,81.834
3311.1777,81.8178
3312.1418,81.8046
3313.1062,81.7948
3314.0703,81.7881
3315.0347,81.7824
3315.9988,81.7736
3316.9631,81.7571
3317.9272,81.7299
3318.8916,81.6924
3319.8557,81.6479
3320.8201,81.6018
3321.7842,81.5592
3322.7485,81.5231
3323.7126,81.4941
3324.6770,81.4706
3325.6411,81.4502
3326.6055,81.4307
3327.5696,81.4104
3328.5339,81.3878
3329.4980,81.3615
3330.4624,81.3308
3331.4265,81.2965
3332.3909,81.2615
3333.3550,81.2295
3334.3193,81.204
3335.2834,81.1856
3336.2478,81.1719
3337.2119,81.1585
3338.1763,81.1419
3339.1404,81.1218
3340.1047,81.1007
3341.0688,81.0822
3342.0332,81.0681
3342.9973,81.0573
3343.9617,81.047
3344.9258,81.0351
3345.8901,81.0224
3346.8542,81.012
3347.8186,81.007
3348.7827,81.0073
3349.7471,81.0079
3350.7112,81.0016
3351.6755,80.982
3352.6396,80.9478
3353.6040,80.9032
3354.5681,80.8565
3355.5325,80.8161
3356.4966,80.7875
3357.4609,80.7724
3358.4250,80.7686
3359.3894,80.772
3360.3535,80.7777
3361.3179,80.7816
3362.2820,80.7815
3363.2463,80.7781
3364.2104,80.7753
3365.1748,80.7777
3366.1389,80.7886
3367.1033,80.8074
3368.0674,80.8297
3369.0317,80.8506
3369.9958,80.8666
3370.9602,80.8773
3371.9243,80.8838
3372.8887,80.8864
3373.8528,80.884
3374.8171,80.8747
3375.7813,80.8594
3376.7456,80.8422
3377.7097,80.8298
3378.6741,80.8273
3379.6382,80.835
3380.6025,80.8483
3381.5667,80.861
3382.5310,80.8695
3383.4951,80.875
3384.4595,80.882
3385.4236,80.8947
3386.3879,80.9132
3387.3521,80.9341
3388.3164,80.9529
3389.2805,80.9669
3390.2449,80.9761
3391.2090,80.9823
3392.1733,80.988
3393.1375,80.9953
3394.1018,81.0069
3395.0659,81.0259
3396.0303,81.0545
3396.9944,81.0913
3397.9587,81.1303
3398.9229,81.1637
3399.8872,81.186
3400.8513,81.1979
3401.8157,81.2061
3402.7798,81.2193
3403.7441,81.2434
3404.7083,81.2789
3405.6726,81.3222
3406.6367,81.3686
3407.6011,81.414
3408.5652,81.4558
3409.5295,81.492
3410.4937,81.5218
3411.4580,81.546
3412.4221,81.5674
3413.3865,81.5894
3414.3506,81.6139
3415.3149,81.6397
3416.2791,81.6634
3417.2434,81.6833
3418.2075,81.7022
3419.1719,81.7281
3420.1360,81.769
3421.1003,81.828
3422.0645,81.9004
3423.0288,81.9764
3423.9929,82.0473
3424.9573,82.1096
3425.9214,82.1649
3426.8857,82.2176
3427.8499,82.2708
3428.8142,82.3256
3429.7783,82.3811
3430.7427,82.437
3431.7068,82.4949
3432.6711,82.5565
3433.6353,82.6222
3434.5996,82.689
3435.5637,82.7517
3436.5281,82.8062
3437.4922,82.8514
3438.4565,82.8897
3439.4207,82.9244
3440.3850,82.9572
3441.3491,82.9877
3442.3135,83.0156
3443.2776,83.0432
3444.2419,83.0777
3445.2061,83.1278
3446.1704,83.1991
3447.1345,83.2886
3448.0989,83.386
3449.0630,83.4794
3450.0273,83.563
3450.9915,83.6387
3451.9558,83.7125
3452.9199,83.7887
3453.8843,83.867
3454.8484,83.9421
3455.8127,84.0081
3456.7769,84.0616
3457.7412,84.1045
3458.7053,84.143
3459.6697,84.1844
3460.6338,84.2346
3461.5981,84.2959
3462.5623,84.3672
3463.5266,84.4458
3464.4907,84.5297
3465.4551,84.6178
3466.4192,84.709
3467.3835,84.8002
3468.3477,84.8858
3469.3120,84.9603
3470.2761,85.0217
3471.2405,85.0747
3472.2046,85.1287
3473.1689,85.1939
3474.1331,85.2741
3475.0974,85.364
3476.0615,85.4518
3477.0259,85.5267
3477.9900,85.5855
3478.9543,85.6345
3479.9185,85.686
3480.8828,85.7508
3481.8469,85.8307
3482.8113,85.9183
3483.7754,86.0025
3484.7397,86.0777
3485.7039,86.1467
3486.6682,86.218
3487.6323,86.3002
3488.5967,86.3953
3489.5608,86.4972
3490.5251,86.5964
3491.4893,86.6861
3492.4536,86.767
3493.4177,86.8455
3494.3821,86.9286
3495.3462,87.0175
3496.3105,87.1037
3497.2747,87.1744
3498.2390,87.2209
3499.2031,87.2465
3500.1675,87.268
3501.1316,87.3098
3502.0959,87.3924
3503.0601,87.5173
3504.0244,87.6638
3504.9885,87.8047
3505.9529,87.924
3506.9170,88.0233
3507.8813,88.1148
3508.8455,88.2122
3509.8098,88.3218
3510.7739,88.4399
3511.7383,88.5574
3512.7024,88.6678
3513.6667,88.7715
3514.6309,88.8714
3515.5952,88.9692
3516.5593,89.0621
3517.5237,89.146
3518.4878,89.2184
3519.4521,89.2812
3520.4163,89.3398
3521.3806,89.3996
3522.3447,89.4632
3523.3091,89.5303
3524.2732,89.6012
3525.2375,89.6811
3526.2017,89.7811
3527.1660,89.9123
3528.1301,90.0768
3529.0945,90.2615
3530.0586,90.4433
3531.0229,90.6029
3531.9871,90.734
3532.9514,90.8438
3533.9155,90.9472
3534.8799,91.0591
3535.8440,91.1874
3536.8083,91.3279
3537.7725,91.4658
3538.7368,91.5845
3539.7009,91.6738
3540.6653,91.7337
3541.6294,91.7733
3542.5938,91.8109
3543.5579,91.8727
3544.5222,91.9837
3545.4863,92.1491
3546.4507,92.3456
3547.4148,92.5373
3548.3792,92.7036
3549.3433,92.8474
3550.3076,92.9859
3551.2717,93.1365
3552.2361,93.3063
3553.2002,93.4874
3554.1646,93.663
3555.1287,93.82
3556.0930,93.9555
3557.0571,94.0728
3558.0215,94.1737
3558.9856,94.2558
3559.9500,94.3152
3560.9141,94.351
3561.8784,94.3682
3562.8425,94.3759
3563.8069,94.3871
3564.7710,94.4311
3565.7354,94.5618
3566.6995,94.8167
3567.6638,95.1441
3568.6279,95.4331
3569.5923,95.6242
3570.5564,95.737
3571.5208,95.8181
3572.4849,95.8978
3573.4492,95.9833
3574.4133,96.07
3575.3777,96.1543
3576.3418,96.2369
3577.3062,96.319
3578.2703,96.3979
3579.2346,96.4658
3580.1987,96.5158
3581.1631,96.549
3582.1272,96.5759
3583.0916,96.6083
3584.0557,96.6512
3585.0200,96.7062
3585.9841,96.7854
3586.9485,96.9017
3587.9126,97.0274
3588.8770,97.101
3589.8411,97.0941
3590.8054,97.0324
3591.7695,96.9593
3592.7339,96.9062
3593.6980,96.887
3594.6624,96.9004
3595.6265,96.9312
3596.5908,96.9615
3597.5549,96.9884
3598.5193,97.0283
3599.4834,97.1022
3600.4478,97.216
3601.4119,97.3522
3602.3762,97.4853
3603.3403,97.6011
3604.3047,97.7013
3605.2688,97.7954
3606.2332,97.8956
3607.1973,98.0118
3608.1616,98.1395
3609.1257,98.2514
3610.0901,98.3139
3611.0542,98.3135
3612.0186,98.265
3612.9829,98.2008
3613.9470,98.1539
3614.9114,98.1438
3615.8755,98.1735
3616.8398,98.2343
3617.8040,98.314
3618.7683,98.3961
3619.7324,98.4479
3620.6968,98.4311
3621.6609,98.3444
3622.6252,98.2395
3623.5894,98.1851
3624.5537,98.219
3625.5178,98.3265
3626.4822,98.4561
3627.4463,98.5752
3628.4106,98.6953
3629.3748,98.7999
3630.3391,98.8297
3631.3032,98.7861
3632.2676,98.74
3633.2317,98.7539
3634.1960,98.8396
3635.1602,98.9646
3636.1245,99.0829
3637.0886,99.1634
3638.0530,99.2007
3639.0171,99.2065
3639.9814,99.1955
3640.9456,99.1794
3641.9099,99.1694
3642.8740,99.1781
3643.8384,99.2109
3644.8025,99.2471
3645.7668,99.2285
3646.7310,99.102
3647.6953,98.9479
3648.6594,99.0023
3649.6238,99.3037
3650.5879,99.583
3651.5522,99.682
3652.5164,99.6613
3653.4807,99.6219
3654.4448,99.6087
3655.4092,99.6148
3656.3733,99.6159
3657.3376,99.5958
3658.3018,99.5582
3659.2661,99.5257
3660.2302,99.5206
3661.1946,99.5453
3662.1587,99.5827
3663.1230,99.6166
3664.0872,99.6488
3665.0515,99.6918
3666.0156,99.7443
3666.9800,99.7759
3667.9441,99.7514
3668.9084,99.6806
3669.8726,99.6174
3670.8369,99.5963
3671.8010,99.6099
3672.7654,99.6325
3673.7295,99.6388
3674.6938,99.6327
3675.6580,99.651
3676.6223,99.6936
3677.5864,99.7139
3678.5508,99.6988
3679.5149,99.6767
3680.4792,99.6691
3681.4434,99.6734
3682.4077,99.6823
3683.3718,99.7017
3684.3362,99.743
3685.3003,99.7956
3686.2646,99.8088
3687.2288,99.7213
3688.1931,99.5442
3689.1572,99.3934
3690.1216,99.3588
3691.0857,99.4066
3692.0500,99.4694
3693.0142,99.5225
3693.9785,99.5694
3694.9426,99.6162
3695.9070,99.6669
3696.8711,99.7242
3697.8354,99.7882
3698.7996,99.8522
3699.7639,99.906
3700.7280,99.9436
3701.6924,99.9655
3702.6565,99.9713
3703.6208,99.9612
3704.5850,99.9443
3705.5493,99.9348
3706.5134,99.9353
3707.4778,99.9287
3708.4419,99.9015
3709.4063,99.895
3710.3704,100.012
3711.3347,100.29
3712.2988,100.598
3713.2632,100.781
3714.2273,100.807
3715.1917,100.733
3716.1558,100.621
3717.1201,100.499
3718.0842,100.364
3719.0486,100.21
3720.0127,100.035
3720.9771,99.8583
3721.9412,99.7107
3722.9055,99.604
3723.8696,99.5573
3724.8340,99.5749
3725.7981,99.6396
3726.7625,99.7237
3727.7266,99.8097
3728.6909,99.8946
3729.6550,99.9737
3730.6194,100.025
3731.5835,100.013
3732.5479,99.9265
3733.5120,99.8267
3734.4763,99.8336
3735.4404,99.9818
3736.4048,100.154
3737.3689,100.248
3738.3333,100.294
3739.2974,100.401
3740.2617,100.647
3741.2258,101.019
3742.1902,101.404
3743.1543,101.639
3744.1187,101.622
3745.0828,101.385
3746.0471,101.059
3747.0112,100.771
3747.9756,100.592
3748.9397,100.538
3749.9041,100.617
3750.8682,100.8
3751.8325,100.957
3752.7966,100.961
3753.7610,100.833
3754.7251,100.672
3755.6895,100.553
3756.6536,100.496
3757.6179,100.497
3758.5820,100.539
3759.5464,100.6
3760.5105,100.649
3761.4749,100.674
3762.4390,100.684
3763.4033,100.691
3764.3674,100.701
3765.3318,100.715
3766.2959,100.73
3767.2603,100.746
3768.2244,100.766
3769.1887,100.794
3770.1528,100.827
3771.1172,100.847
3772.0813,100.843
3773.0457,100.817
3774.0098,100.785
3774.9741,100.761
3775.9382,100.742
3776.9026,100.72
3777.8667,100.696
3778.8311,100.675
3779.7952,100.652
3780.7595,100.615
3781.7236,100.559
3782.6880,100.5
3783.6521,100.462
3784.6165,100.469
3785.5806,100.523
3786.5449,100.609
3787.5090,100.695
3788.4734,100.759
3789.4375,100.795
3790.4019,100.807
3791.3660,100.805
3792.3303,100.782
3793.2944,100.727
3794.2588,100.633
3795.2229,100.515
3796.1873,100.41
3797.1514,100.351
3798.1157,100.347
3799.0798,100.374
3800.0442,100.404
3801.0083,100.423
3801.9727,100.431
3802.9368,100.438
3803.9011,100.465
3804.8652,100.535
3805.8296,100.641
3806.7937,100.74
3807.7581,100.776
3808.7222,100.723
3809.6865,100.626
3810.6506,100.561
3811.6150,100.577
3812.5791,100.659
3813.5435,100.73
3814.5076,100.716
3815.4719,100.601
3816.4360,100.431
3817.4004,100.272
3818.3645,100.171
3819.3289,100.152
3820.2930,100.206
3821.2573,100.281
3822.2214,100.302
3823.1858,100.236
3824.1499,100.125
3825.1143,100.038
3826.0784,100.019
3827.0427,100.076
3828.0068,100.183
3828.9712,100.296
3829.9353,100.381
3830.8997,100.424
3831.8638,100.43
3832.8281,100.416
3833.7922,100.39
3834.7566,100.343
3835.7207,100.255
3836.6851,100.122
3837.6492,99.9816
3838.6135,99.8925
3839.5776,99.8865
3840.5420,99.9532
3841.5061,100.064
3842.4705,100.183
3843.4346,100.272
3844.3989,100.292
3845.3630,100.237
3846.3274,100.144
3847.2915,100.086
3848.2559,100.136
3849.2200,100.327
3850.1843,100.621
3851.1484,100.921
3852.1128,101.144
3853.0769,101.278
3854.0413,101.268
3855.0054,101.036
3855.9697,100.665
3856.9338,100.324
3857.8982,100.123
3858.8623,100.07
3859.8267,100.102
3860.7908,100.132
3861.7551,100.106
3862.7192,100.042
3863.6836,100.002
3864.6477,100.027
3865.6121,100.106
3866.5762,100.199
3867.5405,100.262
3868.5046,100.264
3869.4690,100.208
3870.4331,100.133
3871.3975,100.087
3872.3616,100.083
3873.3259,100.11
3874.2900,100.15
3875.2544,100.195
3876.2185,100.238
3877.1829,100.264
3878.1470,100.253
3879.1113,100.198
3880.0754,100.122
3881.0398,100.069
3882.0039,100.074
3882.9683,100.145
3883.9324,100.254
3884.8967,100.358
3885.8608,100.413
3886.8252,100.403
3887.7893,100.342
3888.7537,100.261
3889.7178,100.179
3890.6821,100.11
3891.6462,100.06
3892.6106,100.023
3893.5747,99.992
3894.5391,99.9743
3895.5032,99.9882
3896.4675,100.034
3897.4316,100.088
3898.3960,100.119
3899.3601,100.113
3900.3245,100.076
3901.2886,100.024
3902.2529,99.9801
3903.2170,99.964
3904.1814,99.9796
3905.1455,100.007
3906.1099,100.027
3907.0740,100.033
3908.0383,100.033
3909.0024,100.031
3909.9668,100.025
3910.9309,100.015
3911.8953,100.003
3912.8594,99.9979
3913.8237,100.002
3914.7878,100.014
3915.7522,100.026
3916.7163,100.035
3917.6807,100.033
3918.6448,100.009
3919.6091,99.9566
3920.5732,99.8822
3921.5376,99.8023
3922.5017,99.7352
3923.4661,99.6946
3924.4302,99.6827
3925.3945,99.6881
3926.3586,99.6933
3927.3230,99.6877
3928.2871,99.6713
3929.2515,99.652
3930.2156,99.6441
3931.1799,99.6636
3932.1440,99.7142
3933.1084,99.7792
3934.0725,99.834
3935.0369,99.8635
3936.0010,99.8666
3936.9653,99.8489
3937.9294,99.8167
3938.8938,99.7758
3939.8579,99.7329
3940.8223,99.6981
3941.7864,99.681
3942.7507,99.6837
3943.7148,99.6975
3944.6792,99.7093
3945.6433,99.7091
3946.6077,99.6943
3947.5718,99.669
3948.5361,99.6426
3949.5002,99.625
3950.4646,99.6202
3951.4287,99.6264
3952.3931,99.6401
3953.3572,99.6576
3954.3215,99.6748
3955.2856,99.6866
3956.2500,99.6888
3957.2141,99.6809
3958.1785,99.6671
3959.1426,99.6554
3960.1069,99.6541
3961.0710,99.6666
3962.0354,99.6887
3962.9995,99.7102
3963.9639,99.7208
3964.9280,99.7159
3965.8923,99.6982
3966.8564,99.6747
3967.8208,99.6515
3968.7849,99.63
3969.7493,99.6078
3970.7134,99.5817
3971.6777,99.5525
3972.6418,99.5254
3973.6062,99.5079
3974.5703,99.5045
3975.5347,99.5142
3976.4988,99.5306
3977.4631,99.5462
3978.4272,99.5557
3979.3916,99.5579
3980.3557,99.5541
3981.3201,99.5462
3982.2842,99.5352
3983.2485,99.5214
3984.2126,99.5053
3985.1770,99.4881
3986.1411,99.4713
3987.1055,99.4555
3988.0696,99.439
3989.0339,99.4188
3989.9980,99.3932
3990.9624,99.3645
3991.9265,99.3404
3992.8909,99.3302
3993.8550,99.3399
3994.8193,99.3665
3995.7834,99.3983
3996.7478,99.4199
3997.7119,99.4208
3998.6763,99.4011
3999.6404,99.3713
4000.6047,99.1509

##### Extended Information
[Comments]
Sample name
Comment
User
Division
Company,HANKYONG

[Detailed Information]
Creation date,4/24/2024 11:46 AM

Data array type,Linear data array
Horizontal axis,Wavenumber [cm-1]
Vertical axis,%T
Start,649.893 cm-1
End,4000.6 cm-1
Data interval,0.964233 cm-1
Data points,3476    

[Measurement Information]
Model Name,FT/IR-4700typeA
Serial Number,D056761788

Accessory,ATR PRO ONE
Accessory S/N,C174761809
Incident angle,45 deg

Measurement Date,4/24/2024 11:45 AM

Light Source,Standard
Detector,TGS
Accumulation,32
Resolution,4 cm-1
Zero Filling,On
Apodization,Cosine
Gain,Auto (4)
Aperture,Auto (7.1 mm)
Scanning Speed,Auto (2 mm/sec)
Filter,Auto (30000 Hz)

